SpectraSuite Data File
++++++++++++++++++++++++++++++++++++
Date: Wed Apr 05 11:32:43 EDT 2017
User: manoharanlab
Dark Spectrum Present: No
Reference Spectrum Present: No
Number of Sampled Component Spectra: 1
Spectrometers: HR+C0212
Integration Time (usec): 5000000 (HR+C0212)
Spectra Averaged: 1 (HR+C0212)
Boxcar Smoothing: 0 (HR+C0212)
Correct for Electrical Dark: No (HR+C0212)
Strobe/Lamp Enabled: No (HR+C0212)
Correct for Detector Non-linearity: No (HR+C0212)
Correct for Stray Light: No (HR+C0212)
Number of Pixels in Processed Spectrum: 2048
>>>>>Begin Processed Spectral Data<<<<<
188.35	1636.00
188.83	1575.00
189.30	1574.00
189.77	1565.00
190.25	1566.00
190.72	2017.00
191.20	1662.00
191.67	1751.00
192.14	1625.00
192.62	1627.00
193.09	1643.00
193.57	1632.00
194.04	1818.00
194.51	1656.00
194.99	1957.00
195.46	1653.00
195.94	1763.00
196.41	1658.00
196.88	1768.00
197.36	1705.00
197.83	2334.00
198.30	1676.00
198.78	1811.00
199.25	1664.00
199.72	1631.00
200.20	1648.00
200.67	1696.00
201.15	1672.00
201.62	1710.00
202.09	1817.00
202.57	1776.00
203.04	1694.00
203.51	1686.00
203.99	1721.00
204.46	1681.00
204.93	1773.00
205.41	1688.00
205.88	1712.00
206.35	1861.00
206.83	1680.00
207.30	1760.00
207.77	1702.00
208.24	1782.00
208.72	1754.00
209.19	1698.00
209.66	1764.00
210.14	1966.00
210.61	1795.00
211.08	2568.00
211.56	1774.00
212.03	1677.00
212.50	2238.00
212.97	1812.00
213.45	1787.00
213.92	1876.00
214.39	1689.00
214.87	1680.00
215.34	1676.00
215.81	1720.00
216.28	1670.00
216.76	1662.00
217.23	1981.00
217.70	1910.00
218.17	1770.00
218.65	1744.00
219.12	1659.00
219.59	1641.00
220.06	1757.00
220.54	3829.00
221.01	1850.00
221.48	1686.00
221.95	1664.00
222.43	1656.00
222.90	1782.00
223.37	1744.00
223.84	1803.00
224.31	1678.00
224.79	1653.00
225.26	1739.00
225.73	1946.00
226.20	1744.00
226.68	1668.00
227.15	1682.00
227.62	1674.00
228.09	1770.00
228.56	1674.00
229.04	1671.00
229.51	1952.00
229.98	1696.00
230.45	1653.00
230.92	1676.00
231.39	1690.00
231.87	1809.00
232.34	1715.00
232.81	1676.00
233.28	1694.00
233.75	1782.00
234.22	1644.00
234.70	1941.00
235.17	1693.00
235.64	1852.00
236.11	1695.00
236.58	1797.00
237.05	1645.00
237.53	1769.00
238.00	1698.00
238.47	2464.00
238.94	2142.00
239.41	1684.00
239.88	1759.00
240.35	1674.00
240.83	1822.00
241.30	1758.00
241.77	1698.00
242.24	1675.00
242.71	1661.00
243.18	1928.00
243.65	1699.00
244.12	1672.00
244.59	1667.00
245.07	1754.00
245.54	1690.00
246.01	1640.00
246.48	1688.00
246.95	1772.00
247.42	1756.00
247.89	1726.00
248.36	1772.00
248.83	1676.00
249.30	1661.00
249.77	1776.00
250.25	1691.00
250.72	1665.00
251.19	3210.00
251.66	1878.00
252.13	1676.00
252.60	1672.00
253.07	1727.00
253.54	1669.00
254.01	1710.00
254.48	1757.00
254.95	1748.00
255.42	1672.00
255.89	1646.00
256.36	1715.00
256.83	1640.00
257.30	1662.00
257.77	1733.00
258.24	1659.00
258.72	1690.00
259.19	1877.00
259.66	1685.00
260.13	1639.00
260.60	1891.00
261.07	1844.00
261.54	1641.00
262.01	1796.00
262.48	1752.00
262.95	1663.00
263.42	1647.00
263.89	1678.00
264.36	1691.00
264.83	1660.00
265.30	1808.00
265.77	1866.00
266.24	1671.00
266.71	2029.00
267.18	1680.00
267.65	1680.00
268.12	1667.00
268.59	1834.00
269.06	1673.00
269.52	1682.00
269.99	1709.00
270.46	1741.00
270.93	1753.00
271.40	1827.00
271.87	1673.00
272.34	1697.00
272.81	1745.00
273.28	1850.00
273.75	1814.00
274.22	1718.00
274.69	1656.00
275.16	1656.00
275.63	1748.00
276.10	1686.00
276.57	1808.00
277.04	1674.00
277.51	1660.00
277.97	1784.00
278.44	1672.00
278.91	1768.00
279.38	1690.00
279.85	1753.00
280.32	1738.00
280.79	1658.00
281.26	1814.00
281.73	1662.00
282.20	1654.00
282.67	1651.00
283.13	1672.00
283.60	1668.00
284.07	1669.00
284.54	1663.00
285.01	1638.00
285.48	2334.00
285.95	1704.00
286.42	1659.00
286.89	1724.00
287.35	1636.00
287.82	1672.00
288.29	1687.00
288.76	1678.00
289.23	1672.00
289.70	1770.00
290.17	1702.00
290.63	1745.00
291.10	1652.00
291.57	1642.00
292.04	1660.00
292.51	1658.00
292.98	1863.00
293.44	1683.00
293.91	1660.00
294.38	1664.00
294.85	1718.00
295.32	1775.00
295.79	1712.00
296.25	1668.00
296.72	1647.00
297.19	2462.00
297.66	1794.00
298.13	1741.00
298.59	1658.00
299.06	1769.00
299.53	1678.00
300.00	2588.00
300.47	1749.00
300.93	1702.00
301.40	1772.00
301.87	1654.00
302.34	1639.00
302.81	1659.00
303.27	1621.00
303.74	1656.00
304.21	1676.00
304.68	1681.00
305.14	1764.00
305.61	1737.00
306.08	1650.00
306.55	1914.00
307.02	1637.00
307.48	1763.00
307.95	1671.00
308.42	1684.00
308.89	1655.00
309.35	1741.00
309.82	1871.00
310.29	1719.00
310.76	1664.00
311.22	1730.00
311.69	1665.00
312.16	1628.00
312.62	1743.00
313.09	1646.00
313.56	1630.00
314.03	1738.00
314.49	1640.00
314.96	1733.00
315.43	1654.00
315.89	1736.00
316.36	1638.00
316.83	1650.00
317.30	1651.00
317.76	1727.00
318.23	1650.00
318.70	1667.00
319.16	1697.00
319.63	1684.00
320.10	1658.00
320.56	1667.00
321.03	1737.00
321.50	1814.00
321.96	1658.00
322.43	1663.00
322.90	1624.00
323.36	1644.00
323.83	1640.00
324.30	1630.00
324.76	1641.00
325.23	1730.00
325.70	1708.00
326.16	1738.00
326.63	1747.00
327.10	2706.00
327.56	1724.00
328.03	1727.00
328.50	1836.00
328.96	1659.00
329.43	1653.00
329.90	1666.00
330.36	1695.00
330.83	1820.00
331.29	1680.00
331.76	2180.00
332.23	1868.00
332.69	2756.00
333.16	1741.00
333.62	1665.00
334.09	1715.00
334.56	1660.00
335.02	1653.00
335.49	1670.00
335.95	1674.00
336.42	1648.00
336.89	1673.00
337.35	1752.00
337.82	1894.00
338.28	1922.00
338.75	1814.00
339.22	1681.00
339.68	2023.00
340.15	1694.00
340.61	1672.00
341.08	1659.00
341.54	1639.00
342.01	1724.00
342.48	1672.00
342.94	1637.00
343.41	1631.00
343.87	1636.00
344.34	1659.00
344.80	1847.00
345.27	1677.00
345.73	1810.00
346.20	8820.00
346.66	2070.00
347.13	1683.00
347.59	1639.00
348.06	1670.00
348.53	1834.00
348.99	1758.00
349.46	1772.00
349.92	1666.00
350.39	1783.00
350.85	1740.00
351.32	1779.00
351.78	1692.00
352.25	1740.00
352.71	1764.00
353.18	1659.00
353.64	1676.00
354.11	1656.00
354.57	1691.00
355.04	1694.00
355.50	1726.00
355.97	1654.00
356.43	1789.00
356.90	1660.00
357.36	2076.00
357.82	1671.00
358.29	1683.00
358.75	1674.00
359.22	1642.00
359.68	1643.00
360.15	1671.00
360.61	1740.00
361.08	1808.00
361.54	1951.00
362.01	1668.00
362.47	1640.00
362.93	1639.00
363.40	1650.00
363.86	1767.00
364.33	1658.00
364.79	1673.00
365.26	1695.00
365.72	1670.00
366.19	1697.00
366.65	1738.00
367.11	1846.00
367.58	1782.00
368.04	1757.00
368.51	1850.00
368.97	1643.00
369.43	1737.00
369.90	1668.00
370.36	1713.00
370.83	1855.00
371.29	1674.00
371.75	2704.00
372.22	1968.00
372.68	1649.00
373.15	2657.00
373.61	1716.00
374.07	1661.00
374.54	1644.00
375.00	1685.00
375.46	1646.00
375.93	1675.00
376.39	1643.00
376.86	1656.00
377.32	1709.00
377.78	1782.00
378.25	1677.00
378.71	1728.00
379.17	1670.00
379.64	1848.00
380.10	1714.00
380.56	2169.00
381.03	2183.00
381.49	1911.00
381.95	1700.00
382.42	5280.00
382.88	1917.00
383.34	1680.00
383.81	1661.00
384.27	1671.00
384.73	1738.00
385.20	1662.00
385.66	1686.00
386.12	1691.00
386.59	1701.00
387.05	1660.00
387.51	1644.00
387.97	1670.00
388.44	2397.00
388.90	1732.00
389.36	1788.00
389.83	1654.00
390.29	1667.00
390.75	1730.00
391.21	1653.00
391.68	1741.00
392.14	2653.00
392.60	1969.00
393.07	1766.00
393.53	1690.00
393.99	1670.00
394.45	2195.00
394.92	1792.00
395.38	1756.00
395.84	1752.00
396.30	1672.00
396.77	1648.00
397.23	1800.00
397.69	1846.00
398.15	1830.00
398.62	1898.00
399.08	1752.00
399.54	1850.00
400.00	1772.00
400.46	1694.00
400.93	1678.00
401.39	1775.00
401.85	1769.00
402.31	1691.00
402.78	1644.00
403.24	1771.00
403.70	1768.00
404.16	1695.00
404.62	2938.00
405.09	2110.00
405.55	1732.00
406.01	1723.00
406.47	1712.00
406.93	1681.00
407.40	1719.00
407.86	1684.00
408.32	1759.00
408.78	1787.00
409.24	1798.00
409.70	1843.00
410.17	1750.00
410.63	1727.00
411.09	1758.00
411.55	1751.00
412.01	1792.00
412.47	1862.00
412.94	1875.00
413.40	1909.00
413.86	1700.00
414.32	1668.00
414.78	1693.00
415.24	1683.00
415.71	1733.00
416.17	1712.00
416.63	1709.00
417.09	1682.00
417.55	1672.00
418.01	2114.00
418.47	1754.00
418.93	1776.00
419.40	1763.00
419.86	1708.00
420.32	1942.00
420.78	1763.00
421.24	1755.00
421.70	1720.00
422.16	1762.00
422.62	1766.00
423.08	2052.00
423.54	1782.00
424.01	1823.00
424.47	1736.00
424.93	1782.00
425.39	2495.00
425.85	1800.00
426.31	1740.00
426.77	1916.00
427.23	1862.00
427.69	1830.00
428.15	1780.00
428.61	1888.00
429.07	1954.00
429.53	1749.00
430.00	1737.00
430.46	1727.00
430.92	1748.00
431.38	1877.00
431.84	1897.00
432.30	1760.00
432.76	1832.00
433.22	1793.00
433.68	2024.00
434.14	1812.00
434.60	1967.00
435.06	1794.00
435.52	1840.00
435.98	1766.00
436.44	1837.00
436.90	1797.00
437.36	1844.00
437.82	2243.00
438.28	1933.00
438.74	1804.00
439.20	1817.00
439.66	1797.00
440.12	1800.00
440.58	1892.00
441.04	1857.00
441.50	1795.00
441.96	1806.00
442.42	1824.00
442.88	1969.00
443.34	1846.00
443.80	1801.00
444.26	1939.00
444.72	1816.00
445.18	1914.00
445.64	1915.00
446.10	1831.00
446.56	1818.00
447.02	1867.00
447.48	1853.00
447.94	1956.00
448.40	2017.00
448.86	2155.00
449.32	1853.00
449.77	1864.00
450.23	2256.00
450.69	1956.00
451.15	1955.00
451.61	1890.00
452.07	1875.00
452.53	2069.00
452.99	1961.00
453.45	2528.00
453.91	2104.00
454.37	2068.00
454.83	1983.00
455.29	1911.00
455.74	1859.00
456.20	1980.00
456.66	1962.00
457.12	1885.00
457.58	1931.00
458.04	1935.00
458.50	1940.00
458.96	1951.00
459.42	2060.00
459.88	1906.00
460.33	1940.00
460.79	1939.00
461.25	1943.00
461.71	2212.00
462.17	2057.00
462.63	1952.00
463.09	2049.00
463.54	1956.00
464.00	2053.00
464.46	2188.00
464.92	2128.00
465.38	2305.00
465.84	2027.00
466.30	2003.00
466.75	2040.00
467.21	2103.00
467.67	2114.00
468.13	2094.00
468.59	2295.00
469.05	2193.00
469.50	2238.00
469.96	2187.00
470.42	2185.00
470.88	2192.00
471.34	2166.00
471.80	2208.00
472.25	2197.00
472.71	2207.00
473.17	2338.00
473.63	2564.00
474.09	2255.00
474.54	2376.00
475.00	2266.00
475.46	2398.00
475.92	2376.00
476.38	2336.00
476.83	2323.00
477.29	2314.00
477.75	2974.00
478.21	2535.00
478.66	2397.00
479.12	2466.00
479.58	2455.00
480.04	3561.00
480.50	2756.00
480.95	3566.00
481.41	2642.00
481.87	3410.00
482.33	2642.00
482.78	2547.00
483.24	3216.00
483.70	2624.00
484.16	2608.00
484.61	2631.00
485.07	2727.00
485.53	3349.00
485.98	2798.00
486.44	2702.00
486.90	2755.00
487.36	2796.00
487.81	2891.00
488.27	2956.00
488.73	2832.00
489.18	2791.00
489.64	3077.00
490.10	2857.00
490.56	2911.00
491.01	2994.00
491.47	2919.00
491.93	2957.00
492.38	2922.00
492.84	3112.00
493.30	2972.00
493.75	3073.00
494.21	3021.00
494.67	3022.00
495.13	3069.00
495.58	3055.00
496.04	3032.00
496.50	3353.00
496.95	3179.00
497.41	3102.00
497.87	3214.00
498.32	3211.00
498.78	3517.00
499.23	3147.00
499.69	3261.00
500.15	3158.00
500.60	3212.00
501.06	3249.00
501.52	4223.00
501.97	3382.00
502.43	3260.00
502.89	3285.00
503.34	3286.00
503.80	3321.00
504.25	3345.00
504.71	3353.00
505.17	3275.00
505.62	3456.00
506.08	3469.00
506.54	3376.00
506.99	3784.00
507.45	3536.00
507.90	3500.00
508.36	3407.00
508.82	3620.00
509.27	3576.00
509.73	3546.00
510.18	3444.00
510.64	3486.00
511.10	3475.00
511.55	3556.00
512.01	3681.00
512.46	3513.00
512.92	3551.00
513.37	3552.00
513.83	3649.00
514.29	3588.00
514.74	3617.00
515.20	3614.00
515.65	3703.00
516.11	3556.00
516.56	3672.00
517.02	3920.00
517.47	3702.00
517.93	3663.00
518.39	3880.00
518.84	3666.00
519.30	3749.00
519.75	3816.00
520.21	3686.00
520.66	3830.00
521.12	3667.00
521.57	3679.00
522.03	3760.00
522.48	3754.00
522.94	3967.00
523.39	3796.00
523.85	3941.00
524.30	3915.00
524.76	3805.00
525.21	3815.00
525.67	3902.00
526.12	4189.00
526.58	4018.00
527.03	3842.00
527.49	3836.00
527.94	3970.00
528.40	4071.00
528.85	4178.00
529.31	3874.00
529.76	3868.00
530.22	3871.00
530.67	4004.00
531.13	3899.00
531.58	4042.00
532.03	3969.00
532.49	4213.00
532.94	4104.00
533.40	4018.00
533.85	4052.00
534.31	3968.00
534.76	3942.00
535.22	4036.00
535.67	4104.00
536.12	4064.00
536.58	4007.00
537.03	4110.00
537.49	4543.00
537.94	4677.00
538.40	4015.00
538.85	3992.00
539.30	4021.00
539.76	3991.00
540.21	4040.00
540.67	4749.00
541.12	4102.00
541.58	4005.00
542.03	4052.00
542.48	4048.00
542.94	4062.00
543.39	4049.00
543.84	4969.00
544.30	4371.00
544.75	4089.00
545.21	4134.00
545.66	4066.00
546.11	4184.00
546.57	4091.00
547.02	4087.00
547.48	4182.00
547.93	4354.00
548.38	4112.00
548.84	4357.00
549.29	4162.00
549.74	4219.00
550.20	4332.00
550.65	4134.00
551.10	4201.00
551.56	4201.00
552.01	4110.00
552.46	4109.00
552.92	4168.00
553.37	4659.00
553.82	4135.00
554.28	4193.00
554.73	4069.00
555.18	4291.00
555.64	4161.00
556.09	4095.00
556.54	4108.00
557.00	4085.00
557.45	4036.00
557.90	4899.00
558.36	4451.00
558.81	4054.00
559.26	4068.00
559.71	4177.00
560.17	4040.00
560.62	4020.00
561.07	3996.00
561.53	4021.00
561.98	4007.00
562.43	3998.00
562.88	4130.00
563.34	4611.00
563.79	4045.00
564.24	3980.00
564.70	4191.00
565.15	4299.00
565.60	3941.00
566.05	3988.00
566.51	3922.00
566.96	3954.00
567.41	3913.00
567.86	3986.00
568.32	4010.00
568.77	3949.00
569.22	3898.00
569.67	3865.00
570.12	3865.00
570.58	3902.00
571.03	3876.00
571.48	3953.00
571.93	3909.00
572.39	3862.00
572.84	3853.00
573.29	4692.00
573.74	3952.00
574.19	3821.00
574.65	4584.00
575.10	4082.00
575.55	3844.00
576.00	3844.00
576.45	3833.00
576.91	3855.00
577.36	3829.00
577.81	3783.00
578.26	3806.00
578.71	4240.00
579.17	3938.00
579.62	4613.00
580.07	3844.00
580.52	3830.00
580.97	3844.00
581.42	3780.00
581.88	3725.00
582.33	3793.00
582.78	4139.00
583.23	3732.00
583.68	3847.00
584.13	3751.00
584.59	3804.00
585.04	3872.00
585.49	3775.00
585.94	3777.00
586.39	3742.00
586.84	3708.00
587.29	3715.00
587.74	3743.00
588.20	3677.00
588.65	3770.00
589.10	3819.00
589.55	3686.00
590.00	3778.00
590.45	3697.00
590.90	3752.00
591.35	3778.00
591.81	3656.00
592.26	3605.00
592.71	3776.00
593.16	3662.00
593.61	4526.00
594.06	3746.00
594.51	3653.00
594.96	3710.00
595.41	3792.00
595.86	3717.00
596.31	3648.00
596.76	3610.00
597.22	3636.00
597.67	3606.00
598.12	3815.00
598.57	3823.00
599.02	3586.00
599.47	3661.00
599.92	3599.00
600.37	3685.00
600.82	3609.00
601.27	3588.00
601.72	3573.00
602.17	3546.00
602.62	3714.00
603.07	3551.00
603.52	3565.00
603.97	3956.00
604.42	3528.00
604.87	3525.00
605.32	3581.00
605.77	3525.00
606.22	3484.00
606.67	3571.00
607.12	3502.00
607.57	3489.00
608.02	3596.00
608.47	3502.00
608.92	3436.00
609.37	3472.00
609.82	3624.00
610.27	3495.00
610.72	3427.00
611.17	4351.00
611.62	3564.00
612.07	3571.00
612.52	3569.00
612.97	3875.00
613.42	3484.00
613.87	3412.00
614.32	3702.00
614.77	3511.00
615.22	3407.00
615.67	3450.00
616.12	3494.00
616.57	3517.00
617.02	3419.00
617.47	3537.00
617.92	3383.00
618.37	3351.00
618.82	3352.00
619.27	3390.00
619.72	3414.00
620.17	3416.00
620.62	3381.00
621.06	3314.00
621.51	3329.00
621.96	3699.00
622.41	3362.00
622.86	3313.00
623.31	3453.00
623.76	3726.00
624.21	3333.00
624.66	3282.00
625.11	3397.00
625.56	3306.00
626.00	3291.00
626.45	3295.00
626.90	3307.00
627.35	3281.00
627.80	3295.00
628.25	3324.00
628.70	3322.00
629.15	3329.00
629.60	3315.00
630.04	3386.00
630.49	3268.00
630.94	3363.00
631.39	3436.00
631.84	3312.00
632.29	3337.00
632.74	3352.00
633.18	3328.00
633.63	3497.00
634.08	3332.00
634.53	3360.00
634.98	3373.00
635.43	3350.00
635.88	3358.00
636.32	3314.00
636.77	3664.00
637.22	3462.00
637.67	3459.00
638.12	3377.00
638.56	4063.00
639.01	3552.00
639.46	3530.00
639.91	3661.00
640.36	3467.00
640.81	3596.00
641.25	3592.00
641.70	3440.00
642.15	3455.00
642.60	3450.00
643.05	3580.00
643.49	3579.00
643.94	3435.00
644.39	3475.00
644.84	3476.00
645.28	3477.00
645.73	3492.00
646.18	3516.00
646.63	3492.00
647.08	3538.00
647.52	3494.00
647.97	3555.00
648.42	4216.00
648.87	3587.00
649.31	4500.00
649.76	3605.00
650.21	3532.00
650.66	3883.00
651.10	3555.00
651.55	3563.00
652.00	3589.00
652.45	3579.00
652.89	3582.00
653.34	3590.00
653.79	3680.00
654.24	3610.00
654.68	3620.00
655.13	3791.00
655.58	3644.00
656.02	3699.00
656.47	3683.00
656.92	3972.00
657.37	3666.00
657.81	3706.00
658.26	3742.00
658.71	3725.00
659.15	3816.00
659.60	3670.00
660.05	3707.00
660.49	3709.00
660.94	3738.00
661.39	3714.00
661.83	5419.00
662.28	3773.00
662.73	3729.00
663.17	3760.00
663.62	3797.00
664.07	3914.00
664.51	3873.00
664.96	3798.00
665.41	3890.00
665.85	3806.00
666.30	3788.00
666.75	3897.00
667.19	3752.00
667.64	3831.00
668.09	3867.00
668.53	3915.00
668.98	3896.00
669.43	3849.00
669.87	4134.00
670.32	3794.00
670.76	3837.00
671.21	3849.00
671.66	3795.00
672.10	3833.00
672.55	3973.00
673.00	3786.00
673.44	3868.00
673.89	4215.00
674.33	3821.00
674.78	4658.00
675.23	3993.00
675.67	3798.00
676.12	3813.00
676.56	3863.00
677.01	3856.00
677.46	3873.00
677.90	3856.00
678.35	3800.00
678.79	3921.00
679.24	3797.00
679.68	3896.00
680.13	4032.00
680.58	4844.00
681.02	3872.00
681.47	3819.00
681.91	3787.00
682.36	3853.00
682.80	4039.00
683.25	3844.00
683.69	3931.00
684.14	3882.00
684.59	3859.00
685.03	3793.00
685.48	3819.00
685.92	3780.00
686.37	3934.00
686.81	3852.00
687.26	3861.00
687.70	3835.00
688.15	3807.00
688.59	3947.00
689.04	3907.00
689.48	3817.00
689.93	3854.00
690.37	3758.00
690.82	3800.00
691.26	3800.00
691.71	3858.00
692.15	4077.00
692.60	3833.00
693.04	3798.00
693.49	3806.00
693.93	3809.00
694.38	3833.00
694.82	3809.00
695.27	3760.00
695.71	3774.00
696.16	3843.00
696.60	3764.00
697.05	3918.00
697.49	3812.00
697.93	4256.00
698.38	3816.00
698.82	3820.00
699.27	3873.00
699.71	3810.00
700.16	3814.00
700.60	3765.00
701.05	3814.00
701.49	3882.00
701.93	3748.00
702.38	3772.00
702.82	3857.00
703.27	3881.00
703.71	3920.00
704.16	3818.00
704.60	3743.00
705.04	3730.00
705.49	3784.00
705.93	3716.00
706.38	3861.00
706.82	3852.00
707.26	3804.00
707.71	3750.00
708.15	3796.00
708.60	3701.00
709.04	3754.00
709.48	3727.00
709.93	4169.00
710.37	3884.00
710.82	3754.00
711.26	3749.00
711.70	4441.00
712.15	3767.00
712.59	3717.00
713.03	3742.00
713.48	3863.00
713.92	3661.00
714.37	3622.00
714.81	4728.00
715.25	3802.00
715.70	4144.00
716.14	3760.00
716.58	3644.00
717.03	3611.00
717.47	3630.00
717.91	3660.00
718.36	3615.00
718.80	3697.00
719.24	3634.00
719.69	3811.00
720.13	3608.00
720.57	3576.00
721.02	3497.00
721.46	3504.00
721.90	3669.00
722.35	3616.00
722.79	3517.00
723.23	3574.00
723.67	3608.00
724.12	3451.00
724.56	3854.00
725.00	3554.00
725.45	3522.00
725.89	3488.00
726.33	3563.00
726.77	3928.00
727.22	3646.00
727.66	3582.00
728.10	3479.00
728.55	3496.00
728.99	3501.00
729.43	3483.00
729.87	4693.00
730.32	3723.00
730.76	3948.00
731.20	3468.00
731.64	3578.00
732.09	3438.00
732.53	3436.00
732.97	3529.00
733.41	3480.00
733.86	3459.00
734.30	3536.00
734.74	3498.00
735.18	3378.00
735.62	3417.00
736.07	3334.00
736.51	3369.00
736.95	3551.00
737.39	3394.00
737.84	3353.00
738.28	3360.00
738.72	3572.00
739.16	3360.00
739.60	3383.00
740.05	3356.00
740.49	3367.00
740.93	3430.00
741.37	3776.00
741.81	3365.00
742.26	4185.00
742.70	3343.00
743.14	3334.00
743.58	3327.00
744.02	3337.00
744.46	3284.00
744.91	3394.00
745.35	3274.00
745.79	3281.00
746.23	3336.00
746.67	3243.00
747.11	3276.00
747.56	3350.00
748.00	3281.00
748.44	3364.00
748.88	3237.00
749.32	3180.00
749.76	3194.00
750.20	3154.00
750.65	3178.00
751.09	3251.00
751.53	3184.00
751.97	3160.00
752.41	3211.00
752.85	3363.00
753.29	3182.00
753.73	3156.00
754.18	3130.00
754.62	3381.00
755.06	3140.00
755.50	3282.00
755.94	3833.00
756.38	3154.00
756.82	3331.00
757.26	3221.00
757.70	3049.00
758.14	3040.00
758.58	3031.00
759.03	3143.00
759.47	3192.00
759.91	3024.00
760.35	3082.00
760.79	3076.00
761.23	3200.00
761.67	3121.00
762.11	2996.00
762.55	2992.00
762.99	3001.00
763.43	3003.00
763.87	3117.00
764.31	2922.00
764.75	3088.00
765.19	3171.00
765.63	2926.00
766.07	2881.00
766.51	2895.00
766.96	2928.00
767.40	2882.00
767.84	3072.00
768.28	2969.00
768.72	2988.00
769.16	2905.00
769.60	2917.00
770.04	2963.00
770.48	2898.00
770.92	2837.00
771.36	2952.00
771.80	2825.00
772.24	3668.00
772.68	2870.00
773.12	2827.00
773.56	2882.00
774.00	2783.00
774.44	2842.00
774.88	2773.00
775.32	2780.00
775.76	2984.00
776.20	2775.00
776.64	2762.00
777.07	2817.00
777.51	2858.00
777.95	2811.00
778.39	2721.00
778.83	2927.00
779.27	2838.00
779.71	2828.00
780.15	2715.00
780.59	3051.00
781.03	3005.00
781.47	2712.00
781.91	2694.00
782.35	3206.00
782.79	2780.00
783.23	2756.00
783.67	2709.00
784.11	2760.00
784.54	2694.00
784.98	2657.00
785.42	2777.00
785.86	2644.00
786.30	2678.00
786.74	2637.00
787.18	2617.00
787.62	2957.00
788.06	2790.00
788.50	2632.00
788.94	2626.00
789.37	2620.00
789.81	2677.00
790.25	2670.00
790.69	3074.00
791.13	2630.00
791.57	2604.00
792.01	2647.00
792.45	2617.00
792.88	2669.00
793.32	2918.00
793.76	2674.00
794.20	2826.00
794.64	2553.00
795.08	2535.00
795.52	2594.00
795.95	2601.00
796.39	2655.00
796.83	2630.00
797.27	2648.00
797.71	2523.00
798.15	2868.00
798.59	2549.00
799.02	2516.00
799.46	2553.00
799.90	2478.00
800.34	2823.00
800.78	2617.00
801.21	2472.00
801.65	2788.00
802.09	2514.00
802.53	2463.00
802.97	4304.00
803.40	2544.00
803.84	2435.00
804.28	2544.00
804.72	2623.00
805.16	2472.00
805.59	2555.00
806.03	2480.00
806.47	2438.00
806.91	2441.00
807.35	2465.00
807.78	2437.00
808.22	2647.00
808.66	2521.00
809.10	2515.00
809.53	2448.00
809.97	2380.00
810.41	2388.00
810.85	2680.00
811.28	2445.00
811.72	2413.00
812.16	2396.00
812.60	2365.00
813.03	2380.00
813.47	2685.00
813.91	2381.00
814.35	2474.00
814.78	2361.00
815.22	2391.00
815.66	2494.00
816.10	2481.00
816.53	2548.00
816.97	3010.00
817.41	2401.00
817.84	2328.00
818.28	2355.00
818.72	2345.00
819.16	2415.00
819.59	3370.00
820.03	2416.00
820.47	2347.00
820.90	2516.00
821.34	2333.00
821.78	2369.00
822.21	2318.00
822.65	2319.00
823.09	2281.00
823.52	2280.00
823.96	2338.00
824.40	2282.00
824.83	2280.00
825.27	2262.00
825.71	2365.00
826.14	2246.00
826.58	2473.00
827.02	2369.00
827.45	2294.00
827.89	2331.00
828.33	2346.00
828.76	2276.00
829.20	2255.00
829.64	2255.00
830.07	2241.00
830.51	2249.00
830.94	2252.00
831.38	2383.00
831.82	2987.00
832.25	2260.00
832.69	2336.00
833.13	2302.00
833.56	2697.00
834.00	2343.00
834.43	2397.00
834.87	2203.00
835.31	2189.00
835.74	2174.00
836.18	2186.00
836.61	2186.00
837.05	2212.00
837.49	2288.00
837.92	2203.00
838.36	2174.00
838.79	2198.00
839.23	2166.00
839.66	2597.00
840.10	2190.00
840.54	2148.00
840.97	2186.00
841.41	2156.00
841.84	2619.00
842.28	2205.00
842.71	2151.00
843.15	2305.00
843.58	2147.00
844.02	2235.00
844.46	2111.00
844.89	2121.00
845.33	2099.00
845.76	2125.00
846.20	2126.00
846.63	2193.00
847.07	2136.00
847.50	2203.00
847.94	2114.00
848.37	2907.00
848.81	2134.00
849.24	2188.00
849.68	2096.00
850.11	2926.00
850.55	2231.00
850.98	3241.00
851.42	2205.00
851.85	2083.00
852.29	2166.00
852.72	2266.00
853.16	2082.00
853.59	2163.00
854.03	2063.00
854.46	2031.00
854.90	2179.00
855.33	2098.00
855.77	2157.00
856.20	2112.00
856.64	2029.00
857.07	2096.00
857.51	2600.00
857.94	2121.00
858.37	2121.00
858.81	2040.00
859.24	2042.00
859.68	2029.00
860.11	2019.00
860.55	2025.00
860.98	2168.00
861.42	2025.00
861.85	2083.00
862.28	2003.00
862.72	2036.00
863.15	2045.00
863.59	2085.00
864.02	1978.00
864.45	2256.00
864.89	1982.00
865.32	2153.00
865.76	2000.00
866.19	2011.00
866.62	2200.00
867.06	1987.00
867.49	2154.00
867.93	2324.00
868.36	2232.00
868.79	2002.00
869.23	2043.00
869.66	2418.00
870.10	1984.00
870.53	1940.00
870.96	2019.00
871.40	1976.00
871.83	1994.00
872.26	1958.00
872.70	2114.00
873.13	1942.00
873.57	2040.00
874.00	1940.00
874.43	1924.00
874.87	2085.00
875.30	2150.00
875.73	1929.00
876.17	2003.00
876.60	2009.00
877.03	1926.00
877.47	1908.00
877.90	1923.00
878.33	1896.00
878.77	1928.00
879.20	1891.00
879.63	2134.00
880.07	1986.00
880.50	1916.00
880.93	1875.00
881.36	1995.00
881.80	1879.00
882.23	1905.00
882.66	2011.00
883.10	1998.00
883.53	2032.00
883.96	1947.00
884.40	1992.00
884.83	1883.00
885.26	2775.00
885.69	1992.00
886.13	2030.00
886.56	2093.00
886.99	2016.00
887.42	1902.00
887.86	1885.00
888.29	1884.00
888.72	1865.00
889.15	1863.00
889.59	1864.00
890.02	1852.00
890.45	1859.00
890.88	2013.00
891.32	2102.00
891.75	1986.00
892.18	1977.00
892.61	1910.00
893.05	1854.00
893.48	1880.00
893.91	1846.00
894.34	1845.00
894.78	1936.00
895.21	1899.00
895.64	1842.00
896.07	1896.00
896.50	1859.00
896.94	1836.00
897.37	1823.00
897.80	2008.00
898.23	1941.00
898.66	3056.00
899.10	2017.00
899.53	1870.00
899.96	1817.00
900.39	1872.00
900.82	1824.00
901.26	1805.00
901.69	1800.00
902.12	1886.00
902.55	1869.00
902.98	1854.00
903.41	1928.00
903.85	1849.00
904.28	2025.00
904.71	1840.00
905.14	1841.00
905.57	1826.00
906.00	1841.00
906.43	2079.00
906.87	1830.00
907.30	1885.00
907.73	1808.00
908.16	1792.00
908.59	1803.00
909.02	1803.00
909.45	1828.00
909.88	1869.00
910.32	1874.00
910.75	1881.00
911.18	1834.00
911.61	1792.00
912.04	1794.00
912.47	2289.00
912.90	2517.00
913.33	1859.00
913.76	2483.00
914.20	1926.00
914.63	1936.00
915.06	1804.00
915.49	1807.00
915.92	1782.00
916.35	1865.00
916.78	1801.00
917.21	1804.00
917.64	1841.00
918.07	1950.00
918.50	2184.00
918.93	1830.00
919.36	1778.00
919.80	1774.00
920.23	1817.00
920.66	1758.00
921.09	1865.00
921.52	1772.00
921.95	1746.00
922.38	1779.00
922.81	1887.00
923.24	1805.00
923.67	1939.00
924.10	1736.00
924.53	2234.00
924.96	1763.00
925.39	1744.00
925.82	1745.00
926.25	1817.00
926.68	1753.00
927.11	1891.00
927.54	1754.00
927.97	1720.00
928.40	1768.00
928.83	1751.00
929.26	1737.00
929.69	2211.00
930.12	1760.00
930.55	1708.00
930.98	1729.00
931.41	1954.00
931.84	1828.00
932.27	1733.00
932.70	2072.00
933.13	1841.00
933.56	1712.00
933.99	1798.00
934.42	1715.00
934.85	1712.00
935.28	1803.00
935.71	1691.00
936.14	1717.00
936.57	1756.00
937.00	1694.00
937.42	1783.00
937.85	1996.00
938.28	1817.00
938.71	2186.00
939.14	1723.00
939.57	1689.00
940.00	1662.00
940.43	1682.00
940.86	1670.00
941.29	1722.00
941.72	1701.00
942.15	1639.00
942.58	1629.00
943.00	1643.00
943.43	1800.00
943.86	1700.00
944.29	1670.00
944.72	2047.00
945.15	1832.00
945.58	1740.00
946.01	1849.00
946.44	1670.00
946.87	1712.00
947.29	1761.00
947.72	1735.00
948.15	1780.00
948.58	1709.00
949.01	1869.00
949.44	1728.00
949.87	1770.00
950.29	1670.00
950.72	1975.00
951.15	1690.00
951.58	1685.00
952.01	2240.00
952.44	1792.00
952.87	1689.00
953.29	1760.00
953.72	1729.00
954.15	1691.00
954.58	1678.00
955.01	1666.00
955.44	1781.00
955.86	1690.00
956.29	1673.00
956.72	1668.00
957.15	1676.00
957.58	1675.00
958.00	1766.00
958.43	1665.00
958.86	1770.00
959.29	1689.00
959.72	1676.00
960.14	1874.00
960.57	1715.00
961.00	1752.00
961.43	1724.00
961.86	2249.00
962.28	1927.00
962.71	1698.00
963.14	1749.00
963.57	1736.00
963.99	1702.00
964.42	1776.00
964.85	1699.00
965.28	1687.00
965.71	1758.00
966.13	1711.00
966.56	1763.00
966.99	1702.00
967.42	1682.00
967.84	1684.00
968.27	1758.00
968.70	1673.00
969.12	1659.00
969.55	1756.00
969.98	1857.00
970.41	1709.00
970.83	1808.00
971.26	1787.00
971.69	1673.00
972.12	2309.00
972.54	1814.00
972.97	1685.00
973.40	2241.00
973.82	1716.00
974.25	1787.00
974.68	1752.00
975.10	1685.00
975.53	1665.00
975.96	1688.00
976.39	1996.00
976.81	1732.00
977.24	1678.00
977.67	1696.00
978.09	1686.00
978.52	1738.00
978.95	1759.00
979.37	1698.00
979.80	1702.00
980.23	1670.00
980.65	1653.00
981.08	1664.00
981.51	1866.00
981.93	1669.00
982.36	1651.00
982.79	1713.00
983.21	1750.00
983.64	1690.00
984.06	1744.00
984.49	1702.00
984.92	1690.00
985.34	1697.00
985.77	1677.00
986.20	1692.00
986.62	1671.00
987.05	1765.00
987.47	1688.00
987.90	2510.00
988.33	1744.00
988.75	1740.00
989.18	1752.00
989.61	1751.00
990.03	1981.00
990.46	2001.00
990.88	1819.00
991.31	1856.00
991.73	1749.00
992.16	2011.00
992.59	1684.00
993.01	1691.00
993.44	1734.00
993.86	1673.00
994.29	1694.00
994.71	1682.00
995.14	1655.00
995.57	1662.00
995.99	1635.00
996.42	1637.00
996.84	1646.00
997.27	1693.00
997.69	1750.00
998.12	1866.00
998.54	1929.00
998.97	1690.00
999.40	1746.00
999.82	1654.00
1000.25	1661.00
1000.67	1657.00
1001.10	1696.00
1001.52	1702.00
1001.95	1891.00
1002.37	1684.00
1002.80	1714.00
1003.22	1644.00
1003.65	1689.00
1004.07	1657.00
1004.50	1653.00
1004.92	1853.00
1005.35	1688.00
1005.77	1657.00
1006.20	1639.00
1006.62	1727.00
1007.05	1679.00
1007.47	1659.00
1007.90	2226.00
1008.32	1730.00
1008.75	1659.00
1009.17	1724.00
1009.60	1647.00
1010.02	1718.00
1010.45	1658.00
1010.87	1722.00
1011.29	1668.00
1011.72	1649.00
1012.14	1620.00
1012.57	1717.00
1012.99	1638.00
1013.42	1670.00
1013.84	1651.00
1014.27	1755.00
1014.69	1779.00
1015.11	1654.00
1015.54	1644.00
1015.96	1658.00
1016.39	1700.00
1016.81	1754.00
1017.24	1805.00
1017.66	1736.00
1018.08	1683.00
1018.51	1743.00
1018.93	1629.00
1019.36	1628.00
1019.78	1767.00
1020.20	1722.00
1020.63	1659.00
1021.05	1802.00
1021.48	1664.00
1021.90	1631.00
1022.32	1654.00
1022.75	1628.00
1023.17	1813.00
1023.59	1646.00
1024.02	1654.00
1024.44	1709.00
1024.87	1649.00
1025.29	1640.00
1025.71	1656.00
1026.14	1952.00
1026.56	1902.00
1026.98	1687.00
1027.41	1673.00
1027.83	1631.00
1028.25	1685.00
1028.68	1629.00
1029.10	1934.00
1029.52	1664.00
1029.95	1658.00
1030.37	1640.00
1030.79	1701.00
1031.22	1678.00
1031.64	1644.00
1032.06	1610.00
1032.49	1669.00
1032.91	1672.00
1033.33	1716.00
1033.76	1640.00
1034.18	1637.00
1034.60	1629.00
1035.03	1667.00
1035.45	1630.00
1035.87	2610.00
1036.29	1808.00
1036.72	1803.00
1037.14	1655.00
1037.56	1643.00
1037.99	1637.00
1038.41	1711.00
1038.83	1706.00
1039.25	1657.00
1039.68	1636.00
1040.10	1645.00
1040.52	1638.00
1040.94	1649.00
1041.37	1620.00
1041.79	1628.00
1042.21	1639.00
1042.63	1720.00
1043.06	1639.00
1043.48	1632.00
1043.90	1643.00
1044.32	1667.00
1044.75	1656.00
1045.17	1974.00
1045.59	1879.00
1046.01	1743.00
1046.44	1778.00
1046.86	1685.00
1047.28	1630.00
1047.70	1722.00
1048.12	1656.00
1048.55	1681.00
1048.97	1824.00
1049.39	1670.00
1049.81	1629.00
1050.23	1697.00
1050.66	1700.00
1051.08	1636.00
1051.50	1716.00
1051.92	1627.00
1052.34	1785.00
1052.77	1712.00
1053.19	1642.00
1053.61	1618.00
1054.03	1656.00
1054.45	1631.00
1054.87	1647.00
1055.30	1646.00
1055.72	1642.00
1056.14	1788.00
1056.56	1740.00
1056.98	1629.00
1057.40	1720.00
1057.82	1625.00
1058.25	1650.00
1058.67	1629.00
1059.09	1653.00
1059.51	1810.00
1059.93	1654.00
1060.35	1667.00
1060.77	1655.00
1061.20	1652.00
1061.62	1714.00
1062.04	1806.00
1062.46	1656.00
1062.88	1639.00
1063.30	1721.00
1063.72	1636.00
1064.14	1655.00
1064.56	1696.00
1064.99	1666.00
1065.41	1619.00
1065.83	1658.00
1066.25	1658.00
1066.67	1701.00
1067.09	1653.00
1067.51	1613.00
1067.93	1744.00
1068.35	1679.00
1068.77	1663.00
1069.19	1800.00
1069.61	1744.00
1070.04	1649.00
1070.46	1619.00
1070.88	1616.00
1071.30	1623.00
1071.72	1628.00
1072.14	1622.00
1072.56	1630.00
1072.98	1615.00
1073.40	1694.00
1073.82	1644.00
1074.24	1608.00
1074.66	1604.00
1075.08	1616.00
1075.50	1727.00
1075.92	1659.00
1076.34	1638.00
1076.76	1628.00
1077.18	1691.00
1077.60	1636.00
1078.02	1628.00
1078.44	1726.00
1078.86	1755.00
1079.28	1720.00
1079.70	1714.00
1080.12	1670.00
1080.54	1630.00
1080.96	1647.00
1081.38	1618.00
1081.80	1615.00
1082.22	1730.00
1082.64	1852.00
1083.06	1740.00
1083.48	1744.00
1083.90	1643.00
1084.32	1620.00
1084.74	1596.00
1085.16	1951.00
1085.58	1647.00
1086.00	1637.00
1086.42	1664.00
1086.84	1738.00
1087.26	1612.00
1087.68	1705.00
1088.10	1664.00
1088.52	2183.00
1088.93	1688.00
1089.35	1728.00
1089.77	1637.00
1090.19	1693.00
1090.61	1647.00
1091.03	1798.00
1091.45	1712.00
1091.87	1620.00
1092.29	1610.00
1092.71	1653.00
1093.13	1661.00
1093.55	1608.00
1093.96	1674.00
1094.38	1625.00
1094.80	1619.00
1095.22	1613.00
1095.64	1600.00
1096.06	1631.00
1096.48	1628.00
1096.90	1595.00
1097.32	1644.00
1097.73	1632.00
1098.15	1605.00
1098.57	1672.00
1098.99	1651.00
1099.41	1607.00
1099.83	1623.00
1100.25	1627.00
1100.67	1677.00
1101.08	1817.00
1101.50	1638.00
1101.92	1798.00
1102.34	1706.00
1102.76	1632.00
>>>>>End Processed Spectral Data<<<<<
