SpectraSuite Data File
++++++++++++++++++++++++++++++++++++
Date: Wed Apr 05 11:33:23 EDT 2017
User: manoharanlab
Dark Spectrum Present: No
Reference Spectrum Present: No
Number of Sampled Component Spectra: 1
Spectrometers: HR+C0212
Integration Time (usec): 5000000 (HR+C0212)
Spectra Averaged: 1 (HR+C0212)
Boxcar Smoothing: 0 (HR+C0212)
Correct for Electrical Dark: No (HR+C0212)
Strobe/Lamp Enabled: No (HR+C0212)
Correct for Detector Non-linearity: No (HR+C0212)
Correct for Stray Light: No (HR+C0212)
Number of Pixels in Processed Spectrum: 2048
>>>>>Begin Processed Spectral Data<<<<<
188.35	1626.00
188.83	1581.00
189.30	1576.00
189.77	1568.00
190.25	1562.00
190.72	2011.00
191.20	1696.00
191.67	1755.00
192.14	1628.00
192.62	1642.00
193.09	1635.00
193.57	1644.00
194.04	1817.00
194.51	1658.00
194.99	1972.00
195.46	1655.00
195.94	1766.00
196.41	1669.00
196.88	1750.00
197.36	1728.00
197.83	2386.00
198.30	1674.00
198.78	1813.00
199.25	1662.00
199.72	1637.00
200.20	1644.00
200.67	1676.00
201.15	1676.00
201.62	1722.00
202.09	1803.00
202.57	1781.00
203.04	1717.00
203.51	1712.00
203.99	1695.00
204.46	1688.00
204.93	1759.00
205.41	1697.00
205.88	1690.00
206.35	1855.00
206.83	1687.00
207.30	1741.00
207.77	1691.00
208.24	1753.00
208.72	1758.00
209.19	1684.00
209.66	1745.00
210.14	1952.00
210.61	1763.00
211.08	2553.00
211.56	1758.00
212.03	1691.00
212.50	2230.00
212.97	1800.00
213.45	1808.00
213.92	1870.00
214.39	1677.00
214.87	1705.00
215.34	1679.00
215.81	1717.00
216.28	1659.00
216.76	1668.00
217.23	1986.00
217.70	1932.00
218.17	1778.00
218.65	1797.00
219.12	1681.00
219.59	1655.00
220.06	1730.00
220.54	3897.00
221.01	1875.00
221.48	1674.00
221.95	1678.00
222.43	1652.00
222.90	1781.00
223.37	1761.00
223.84	1776.00
224.31	1684.00
224.79	1672.00
225.26	1740.00
225.73	1909.00
226.20	1747.00
226.68	1694.00
227.15	1666.00
227.62	1676.00
228.09	1754.00
228.56	1676.00
229.04	1694.00
229.51	1910.00
229.98	1693.00
230.45	1692.00
230.92	1696.00
231.39	1721.00
231.87	1828.00
232.34	1716.00
232.81	1676.00
233.28	1649.00
233.75	1792.00
234.22	1664.00
234.70	1935.00
235.17	1690.00
235.64	1860.00
236.11	1669.00
236.58	1768.00
237.05	1660.00
237.53	1766.00
238.00	1706.00
238.47	2488.00
238.94	2168.00
239.41	1702.00
239.88	1772.00
240.35	1669.00
240.83	1852.00
241.30	1724.00
241.77	1686.00
242.24	1708.00
242.71	1676.00
243.18	1936.00
243.65	1709.00
244.12	1684.00
244.59	1664.00
245.07	1755.00
245.54	1694.00
246.01	1639.00
246.48	1666.00
246.95	1767.00
247.42	1773.00
247.89	1716.00
248.36	1742.00
248.83	1682.00
249.30	1669.00
249.77	1792.00
250.25	1707.00
250.72	1671.00
251.19	3161.00
251.66	1872.00
252.13	1665.00
252.60	1657.00
253.07	1711.00
253.54	1684.00
254.01	1736.00
254.48	1727.00
254.95	1756.00
255.42	1657.00
255.89	1657.00
256.36	1728.00
256.83	1668.00
257.30	1662.00
257.77	1744.00
258.24	1691.00
258.72	1673.00
259.19	1868.00
259.66	1674.00
260.13	1654.00
260.60	1885.00
261.07	1891.00
261.54	1662.00
262.01	1813.00
262.48	1743.00
262.95	1696.00
263.42	1631.00
263.89	1668.00
264.36	1684.00
264.83	1665.00
265.30	1792.00
265.77	1866.00
266.24	1682.00
266.71	2092.00
267.18	1690.00
267.65	1719.00
268.12	1687.00
268.59	1854.00
269.06	1653.00
269.52	1674.00
269.99	1694.00
270.46	1730.00
270.93	1744.00
271.40	1825.00
271.87	1686.00
272.34	1711.00
272.81	1774.00
273.28	1848.00
273.75	1813.00
274.22	1685.00
274.69	1636.00
275.16	1633.00
275.63	1733.00
276.10	1677.00
276.57	1811.00
277.04	1657.00
277.51	1656.00
277.97	1761.00
278.44	1649.00
278.91	1751.00
279.38	1699.00
279.85	1773.00
280.32	1705.00
280.79	1646.00
281.26	1814.00
281.73	1664.00
282.20	1633.00
282.67	1646.00
283.13	1650.00
283.60	1658.00
284.07	1665.00
284.54	1648.00
285.01	1649.00
285.48	2354.00
285.95	1703.00
286.42	1672.00
286.89	1718.00
287.35	1642.00
287.82	1658.00
288.29	1667.00
288.76	1663.00
289.23	1679.00
289.70	1779.00
290.17	1704.00
290.63	1751.00
291.10	1653.00
291.57	1627.00
292.04	1637.00
292.51	1664.00
292.98	1841.00
293.44	1686.00
293.91	1650.00
294.38	1684.00
294.85	1726.00
295.32	1763.00
295.79	1744.00
296.25	1665.00
296.72	1636.00
297.19	2476.00
297.66	1767.00
298.13	1761.00
298.59	1658.00
299.06	1766.00
299.53	1678.00
300.00	2593.00
300.47	1765.00
300.93	1717.00
301.40	1752.00
301.87	1664.00
302.34	1665.00
302.81	1668.00
303.27	1638.00
303.74	1666.00
304.21	1647.00
304.68	1670.00
305.14	1748.00
305.61	1717.00
306.08	1651.00
306.55	1888.00
307.02	1664.00
307.48	1755.00
307.95	1689.00
308.42	1689.00
308.89	1665.00
309.35	1758.00
309.82	1868.00
310.29	1707.00
310.76	1656.00
311.22	1701.00
311.69	1678.00
312.16	1641.00
312.62	1718.00
313.09	1653.00
313.56	1646.00
314.03	1749.00
314.49	1644.00
314.96	1719.00
315.43	1676.00
315.89	1736.00
316.36	1639.00
316.83	1653.00
317.30	1648.00
317.76	1744.00
318.23	1646.00
318.70	1681.00
319.16	1648.00
319.63	1681.00
320.10	1641.00
320.56	1676.00
321.03	1736.00
321.50	1819.00
321.96	1636.00
322.43	1662.00
322.90	1640.00
323.36	1658.00
323.83	1643.00
324.30	1637.00
324.76	1640.00
325.23	1747.00
325.70	1720.00
326.16	1739.00
326.63	1760.00
327.10	2690.00
327.56	1728.00
328.03	1737.00
328.50	1832.00
328.96	1658.00
329.43	1644.00
329.90	1677.00
330.36	1730.00
330.83	1812.00
331.29	1682.00
331.76	2150.00
332.23	1860.00
332.69	2737.00
333.16	1762.00
333.62	1643.00
334.09	1715.00
334.56	1649.00
335.02	1643.00
335.49	1642.00
335.95	1649.00
336.42	1637.00
336.89	1679.00
337.35	1750.00
337.82	1914.00
338.28	1943.00
338.75	1786.00
339.22	1664.00
339.68	2020.00
340.15	1684.00
340.61	1661.00
341.08	1674.00
341.54	1646.00
342.01	1728.00
342.48	1678.00
342.94	1607.00
343.41	1641.00
343.87	1636.00
344.34	1670.00
344.80	1845.00
345.27	1697.00
345.73	1808.00
346.20	10587.00
346.66	2164.00
347.13	1666.00
347.59	1646.00
348.06	1665.00
348.53	1838.00
348.99	1784.00
349.46	1757.00
349.92	1676.00
350.39	1823.00
350.85	1730.00
351.32	1762.00
351.78	1688.00
352.25	1730.00
352.71	1727.00
353.18	1667.00
353.64	1685.00
354.11	1636.00
354.57	1708.00
355.04	1718.00
355.50	1701.00
355.97	1643.00
356.43	1762.00
356.90	1672.00
357.36	2056.00
357.82	1681.00
358.29	1684.00
358.75	1660.00
359.22	1629.00
359.68	1639.00
360.15	1678.00
360.61	1724.00
361.08	1836.00
361.54	1921.00
362.01	1680.00
362.47	1641.00
362.93	1624.00
363.40	1639.00
363.86	1771.00
364.33	1642.00
364.79	1692.00
365.26	1692.00
365.72	1665.00
366.19	1744.00
366.65	1729.00
367.11	1840.00
367.58	1782.00
368.04	1744.00
368.51	1843.00
368.97	1679.00
369.43	1731.00
369.90	1662.00
370.36	1699.00
370.83	1861.00
371.29	1679.00
371.75	2688.00
372.22	1940.00
372.68	1668.00
373.15	2654.00
373.61	1735.00
374.07	1681.00
374.54	1606.00
375.00	1657.00
375.46	1623.00
375.93	1688.00
376.39	1658.00
376.86	1678.00
377.32	1734.00
377.78	1773.00
378.25	1677.00
378.71	1705.00
379.17	1654.00
379.64	1858.00
380.10	1724.00
380.56	2170.00
381.03	2165.00
381.49	1881.00
381.95	1680.00
382.42	5276.00
382.88	1914.00
383.34	1677.00
383.81	1667.00
384.27	1668.00
384.73	1735.00
385.20	1662.00
385.66	1644.00
386.12	1718.00
386.59	1679.00
387.05	1657.00
387.51	1664.00
387.97	1675.00
388.44	2386.00
388.90	1746.00
389.36	1770.00
389.83	1653.00
390.29	1668.00
390.75	1731.00
391.21	1656.00
391.68	1757.00
392.14	2665.00
392.60	1985.00
393.07	1758.00
393.53	1687.00
393.99	1678.00
394.45	2185.00
394.92	1777.00
395.38	1742.00
395.84	1755.00
396.30	1661.00
396.77	1654.00
397.23	1796.00
397.69	1847.00
398.15	1815.00
398.62	1899.00
399.08	1750.00
399.54	1842.00
400.00	1803.00
400.46	1694.00
400.93	1677.00
401.39	1783.00
401.85	1754.00
402.31	1677.00
402.78	1689.00
403.24	1793.00
403.70	1759.00
404.16	1710.00
404.62	2893.00
405.09	2083.00
405.55	1708.00
406.01	1738.00
406.47	1720.00
406.93	1692.00
407.40	1715.00
407.86	1673.00
408.32	1753.00
408.78	1762.00
409.24	1777.00
409.70	1856.00
410.17	1744.00
410.63	1704.00
411.09	1754.00
411.55	1752.00
412.01	1768.00
412.47	1896.00
412.94	1864.00
413.40	1925.00
413.86	1708.00
414.32	1678.00
414.78	1702.00
415.24	1693.00
415.71	1737.00
416.17	1702.00
416.63	1696.00
417.09	1691.00
417.55	1662.00
418.01	2085.00
418.47	1725.00
418.93	1757.00
419.40	1732.00
419.86	1694.00
420.32	1931.00
420.78	1776.00
421.24	1747.00
421.70	1722.00
422.16	1744.00
422.62	1772.00
423.08	2021.00
423.54	1768.00
424.01	1822.00
424.47	1733.00
424.93	1806.00
425.39	2439.00
425.85	1798.00
426.31	1736.00
426.77	1913.00
427.23	1885.00
427.69	1838.00
428.15	1776.00
428.61	1844.00
429.07	1934.00
429.53	1739.00
430.00	1753.00
430.46	1741.00
430.92	1728.00
431.38	1850.00
431.84	1866.00
432.30	1791.00
432.76	1856.00
433.22	1768.00
433.68	2043.00
434.14	1807.00
434.60	1939.00
435.06	1795.00
435.52	1811.00
435.98	1767.00
436.44	1854.00
436.90	1797.00
437.36	1836.00
437.82	2224.00
438.28	1908.00
438.74	1820.00
439.20	1796.00
439.66	1790.00
440.12	1787.00
440.58	1869.00
441.04	1821.00
441.50	1797.00
441.96	1799.00
442.42	1832.00
442.88	1957.00
443.34	1859.00
443.80	1788.00
444.26	1918.00
444.72	1827.00
445.18	1877.00
445.64	1885.00
446.10	1812.00
446.56	1819.00
447.02	1865.00
447.48	1858.00
447.94	1951.00
448.40	2034.00
448.86	2140.00
449.32	1837.00
449.77	1846.00
450.23	2244.00
450.69	1956.00
451.15	1938.00
451.61	1870.00
452.07	1854.00
452.53	2039.00
452.99	1936.00
453.45	2491.00
453.91	2123.00
454.37	2114.00
454.83	2001.00
455.29	1887.00
455.74	1885.00
456.20	1974.00
456.66	1952.00
457.12	1888.00
457.58	1923.00
458.04	1903.00
458.50	1912.00
458.96	1908.00
459.42	2021.00
459.88	1921.00
460.33	1945.00
460.79	1965.00
461.25	1946.00
461.71	2203.00
462.17	2063.00
462.63	1979.00
463.09	2077.00
463.54	1939.00
464.00	1966.00
464.46	2185.00
464.92	2123.00
465.38	2271.00
465.84	2046.00
466.30	1994.00
466.75	2036.00
467.21	2045.00
467.67	2132.00
468.13	2051.00
468.59	2252.00
469.05	2185.00
469.50	2176.00
469.96	2171.00
470.42	2130.00
470.88	2171.00
471.34	2116.00
471.80	2164.00
472.25	2147.00
472.71	2192.00
473.17	2302.00
473.63	2491.00
474.09	2262.00
474.54	2306.00
475.00	2266.00
475.46	2353.00
475.92	2382.00
476.38	2290.00
476.83	2279.00
477.29	2304.00
477.75	2917.00
478.21	2503.00
478.66	2419.00
479.12	2426.00
479.58	2402.00
480.04	3508.00
480.50	2737.00
480.95	3510.00
481.41	2636.00
481.87	3382.00
482.33	2546.00
482.78	2514.00
483.24	3167.00
483.70	2587.00
484.16	2581.00
484.61	2596.00
485.07	2703.00
485.53	3301.00
485.98	2756.00
486.44	2652.00
486.90	2716.00
487.36	2787.00
487.81	2756.00
488.27	2897.00
488.73	2763.00
489.18	2757.00
489.64	3110.00
490.10	2794.00
490.56	2835.00
491.01	2907.00
491.47	2867.00
491.93	2859.00
492.38	2873.00
492.84	3034.00
493.30	2929.00
493.75	3009.00
494.21	2925.00
494.67	2957.00
495.13	2983.00
495.58	3009.00
496.04	3049.00
496.50	3283.00
496.95	3120.00
497.41	3041.00
497.87	3151.00
498.32	3166.00
498.78	3387.00
499.23	3127.00
499.69	3128.00
500.15	3096.00
500.60	3136.00
501.06	3221.00
501.52	4188.00
501.97	3295.00
502.43	3217.00
502.89	3213.00
503.34	3218.00
503.80	3223.00
504.25	3284.00
504.71	3277.00
505.17	3291.00
505.62	3366.00
506.08	3380.00
506.54	3340.00
506.99	3678.00
507.45	3410.00
507.90	3438.00
508.36	3306.00
508.82	3464.00
509.27	3492.00
509.73	3473.00
510.18	3352.00
510.64	3391.00
511.10	3405.00
511.55	3455.00
512.01	3613.00
512.46	3465.00
512.92	3477.00
513.37	3500.00
513.83	3583.00
514.29	3452.00
514.74	3537.00
515.20	3481.00
515.65	3600.00
516.11	3502.00
516.56	3556.00
517.02	3823.00
517.47	3599.00
517.93	3577.00
518.39	3768.00
518.84	3576.00
519.30	3592.00
519.75	3737.00
520.21	3573.00
520.66	3743.00
521.12	3640.00
521.57	3650.00
522.03	3680.00
522.48	3635.00
522.94	3873.00
523.39	3712.00
523.85	3861.00
524.30	3761.00
524.76	3699.00
525.21	3723.00
525.67	3814.00
526.12	4114.00
526.58	3940.00
527.03	3755.00
527.49	3759.00
527.94	3812.00
528.40	3953.00
528.85	4070.00
529.31	3833.00
529.76	3779.00
530.22	3768.00
530.67	3862.00
531.13	3848.00
531.58	3900.00
532.03	3867.00
532.49	4098.00
532.94	4027.00
533.40	3957.00
533.85	3938.00
534.31	3818.00
534.76	3853.00
535.22	3997.00
535.67	4011.00
536.12	3960.00
536.58	3929.00
537.03	3987.00
537.49	4357.00
537.94	4617.00
538.40	3923.00
538.85	3840.00
539.30	3867.00
539.76	3941.00
540.21	3897.00
540.67	4618.00
541.12	3977.00
541.58	3951.00
542.03	3996.00
542.48	3991.00
542.94	3987.00
543.39	3975.00
543.84	4875.00
544.30	4264.00
544.75	3933.00
545.21	4020.00
545.66	3921.00
546.11	4025.00
546.57	3998.00
547.02	3952.00
547.48	4060.00
547.93	4233.00
548.38	3994.00
548.84	4210.00
549.29	4036.00
549.74	4085.00
550.20	4182.00
550.65	3958.00
551.10	4098.00
551.56	4088.00
552.01	3991.00
552.46	3979.00
552.92	4114.00
553.37	4555.00
553.82	3998.00
554.28	4172.00
554.73	3953.00
555.18	4137.00
555.64	4025.00
556.09	3904.00
556.54	3978.00
557.00	3915.00
557.45	3904.00
557.90	4716.00
558.36	4276.00
558.81	3881.00
559.26	3940.00
559.71	4002.00
560.17	3881.00
560.62	3846.00
561.07	3848.00
561.53	3923.00
561.98	3888.00
562.43	3882.00
562.88	3978.00
563.34	4435.00
563.79	3856.00
564.24	3848.00
564.70	4043.00
565.15	4206.00
565.60	3881.00
566.05	3795.00
566.51	3788.00
566.96	3801.00
567.41	3817.00
567.86	3888.00
568.32	3808.00
568.77	3794.00
569.22	3707.00
569.67	3743.00
570.12	3787.00
570.58	3796.00
571.03	3766.00
571.48	3762.00
571.93	3804.00
572.39	3767.00
572.84	3731.00
573.29	4596.00
573.74	3816.00
574.19	3743.00
574.65	4429.00
575.10	3836.00
575.55	3679.00
576.00	3698.00
576.45	3715.00
576.91	3643.00
577.36	3699.00
577.81	3702.00
578.26	3638.00
578.71	4139.00
579.17	3780.00
579.62	4435.00
580.07	3711.00
580.52	3697.00
580.97	3667.00
581.42	3602.00
581.88	3622.00
582.33	3627.00
582.78	4066.00
583.23	3638.00
583.68	3671.00
584.13	3625.00
584.59	3636.00
585.04	3767.00
585.49	3622.00
585.94	3664.00
586.39	3568.00
586.84	3540.00
587.29	3535.00
587.74	3605.00
588.20	3581.00
588.65	3650.00
589.10	3639.00
589.55	3555.00
590.00	3636.00
590.45	3558.00
590.90	3650.00
591.35	3663.00
591.81	3531.00
592.26	3462.00
592.71	3620.00
593.16	3525.00
593.61	4346.00
594.06	3586.00
594.51	3500.00
594.96	3535.00
595.41	3618.00
595.86	3606.00
596.31	3457.00
596.76	3494.00
597.22	3492.00
597.67	3438.00
598.12	3672.00
598.57	3712.00
599.02	3463.00
599.47	3560.00
599.92	3476.00
600.37	3524.00
600.82	3467.00
601.27	3448.00
601.72	3413.00
602.17	3391.00
602.62	3534.00
603.07	3462.00
603.52	3414.00
603.97	3773.00
604.42	3438.00
604.87	3384.00
605.32	3406.00
605.77	3365.00
606.22	3399.00
606.67	3440.00
607.12	3415.00
607.57	3378.00
608.02	3445.00
608.47	3335.00
608.92	3336.00
609.37	3357.00
609.82	3467.00
610.27	3399.00
610.72	3324.00
611.17	4290.00
611.62	3413.00
612.07	3507.00
612.52	3432.00
612.97	3785.00
613.42	3368.00
613.87	3288.00
614.32	3601.00
614.77	3358.00
615.22	3314.00
615.67	3362.00
616.12	3432.00
616.57	3357.00
617.02	3220.00
617.47	3486.00
617.92	3199.00
618.37	3205.00
618.82	3217.00
619.27	3265.00
619.72	3315.00
620.17	3332.00
620.62	3277.00
621.06	3274.00
621.51	3196.00
621.96	3515.00
622.41	3292.00
622.86	3237.00
623.31	3345.00
623.76	3650.00
624.21	3272.00
624.66	3211.00
625.11	3294.00
625.56	3242.00
626.00	3220.00
626.45	3207.00
626.90	3192.00
627.35	3229.00
627.80	3237.00
628.25	3198.00
628.70	3214.00
629.15	3247.00
629.60	3204.00
630.04	3304.00
630.49	3187.00
630.94	3261.00
631.39	3372.00
631.84	3268.00
632.29	3217.00
632.74	3244.00
633.18	3240.00
633.63	3336.00
634.08	3244.00
634.53	3275.00
634.98	3305.00
635.43	3276.00
635.88	3259.00
636.32	3264.00
636.77	3580.00
637.22	3392.00
637.67	3304.00
638.12	3277.00
638.56	3981.00
639.01	3408.00
639.46	3397.00
639.91	3592.00
640.36	3345.00
640.81	3458.00
641.25	3493.00
641.70	3297.00
642.15	3387.00
642.60	3327.00
643.05	3421.00
643.49	3443.00
643.94	3373.00
644.39	3349.00
644.84	3408.00
645.28	3360.00
645.73	3339.00
646.18	3373.00
646.63	3430.00
647.08	3447.00
647.52	3384.00
647.97	3420.00
648.42	4149.00
648.87	3515.00
649.31	4420.00
649.76	3561.00
650.21	3472.00
650.66	3806.00
651.10	3442.00
651.55	3477.00
652.00	3447.00
652.45	3590.00
652.89	3513.00
653.34	3508.00
653.79	3545.00
654.24	3500.00
654.68	3522.00
655.13	3757.00
655.58	3520.00
656.02	3566.00
656.47	3599.00
656.92	3868.00
657.37	3564.00
657.81	3654.00
658.26	3647.00
658.71	3602.00
659.15	3670.00
659.60	3618.00
660.05	3628.00
660.49	3682.00
660.94	3659.00
661.39	3606.00
661.83	5261.00
662.28	3688.00
662.73	3607.00
663.17	3604.00
663.62	3716.00
664.07	3789.00
664.51	3737.00
664.96	3704.00
665.41	3760.00
665.85	3677.00
666.30	3659.00
666.75	3801.00
667.19	3703.00
667.64	3692.00
668.09	3690.00
668.53	3864.00
668.98	3762.00
669.43	3744.00
669.87	4029.00
670.32	3714.00
670.76	3704.00
671.21	3669.00
671.66	3736.00
672.10	3777.00
672.55	3824.00
673.00	3727.00
673.44	3814.00
673.89	4122.00
674.33	3719.00
674.78	4578.00
675.23	3902.00
675.67	3704.00
676.12	3726.00
676.56	3766.00
677.01	3739.00
677.46	3724.00
677.90	3759.00
678.35	3686.00
678.79	3815.00
679.24	3710.00
679.68	3808.00
680.13	3958.00
680.58	4739.00
681.02	3769.00
681.47	3736.00
681.91	3710.00
682.36	3706.00
682.80	3856.00
683.25	3728.00
683.69	3784.00
684.14	3726.00
684.59	3726.00
685.03	3721.00
685.48	3705.00
685.92	3705.00
686.37	3858.00
686.81	3745.00
687.26	3691.00
687.70	3708.00
688.15	3760.00
688.59	3810.00
689.04	3785.00
689.48	3702.00
689.93	3738.00
690.37	3733.00
690.82	3714.00
691.26	3715.00
691.71	3774.00
692.15	3947.00
692.60	3756.00
693.04	3701.00
693.49	3704.00
693.93	3684.00
694.38	3710.00
694.82	3680.00
695.27	3704.00
695.71	3705.00
696.16	3688.00
696.60	3642.00
697.05	3783.00
697.49	3676.00
697.93	4139.00
698.38	3655.00
698.82	3698.00
699.27	3790.00
699.71	3689.00
700.16	3746.00
700.60	3610.00
701.05	3675.00
701.49	3725.00
701.93	3736.00
702.38	3665.00
702.82	3804.00
703.27	3766.00
703.71	3796.00
704.16	3764.00
704.60	3663.00
705.04	3646.00
705.49	3640.00
705.93	3683.00
706.38	3760.00
706.82	3829.00
707.26	3687.00
707.71	3679.00
708.15	3713.00
708.60	3622.00
709.04	3691.00
709.48	3680.00
709.93	4009.00
710.37	3741.00
710.82	3616.00
711.26	3613.00
711.70	4318.00
712.15	3660.00
712.59	3612.00
713.03	3654.00
713.48	3757.00
713.92	3596.00
714.37	3622.00
714.81	4664.00
715.25	3625.00
715.70	4086.00
716.14	3683.00
716.58	3594.00
717.03	3501.00
717.47	3516.00
717.91	3572.00
718.36	3554.00
718.80	3556.00
719.24	3555.00
719.69	3784.00
720.13	3521.00
720.57	3498.00
721.02	3408.00
721.46	3475.00
721.90	3532.00
722.35	3538.00
722.79	3408.00
723.23	3484.00
723.67	3522.00
724.12	3448.00
724.56	3817.00
725.00	3483.00
725.45	3391.00
725.89	3393.00
726.33	3455.00
726.77	3867.00
727.22	3531.00
727.66	3508.00
728.10	3408.00
728.55	3391.00
728.99	3397.00
729.43	3360.00
729.87	4625.00
730.32	3611.00
730.76	3860.00
731.20	3426.00
731.64	3472.00
732.09	3367.00
732.53	3369.00
732.97	3459.00
733.41	3389.00
733.86	3429.00
734.30	3415.00
734.74	3450.00
735.18	3334.00
735.62	3349.00
736.07	3354.00
736.51	3330.00
736.95	3522.00
737.39	3338.00
737.84	3346.00
738.28	3307.00
738.72	3505.00
739.16	3298.00
739.60	3299.00
740.05	3304.00
740.49	3335.00
740.93	3414.00
741.37	3736.00
741.81	3292.00
742.26	4135.00
742.70	3296.00
743.14	3252.00
743.58	3270.00
744.02	3316.00
744.46	3234.00
744.91	3387.00
745.35	3203.00
745.79	3184.00
746.23	3309.00
746.67	3165.00
747.11	3194.00
747.56	3282.00
748.00	3265.00
748.44	3317.00
748.88	3177.00
749.32	3117.00
749.76	3146.00
750.20	3155.00
750.65	3164.00
751.09	3193.00
751.53	3094.00
751.97	3090.00
752.41	3130.00
752.85	3318.00
753.29	3059.00
753.73	3081.00
754.18	3072.00
754.62	3366.00
755.06	3059.00
755.50	3228.00
755.94	3723.00
756.38	3097.00
756.82	3227.00
757.26	3185.00
757.70	3005.00
758.14	2995.00
758.58	3022.00
759.03	3056.00
759.47	3060.00
759.91	2965.00
760.35	2968.00
760.79	3037.00
761.23	3129.00
761.67	3075.00
762.11	2973.00
762.55	2942.00
762.99	2951.00
763.43	2940.00
763.87	3062.00
764.31	2888.00
764.75	3083.00
765.19	3126.00
765.63	2892.00
766.07	2903.00
766.51	2884.00
766.96	2863.00
767.40	2829.00
767.84	2958.00
768.28	2944.00
768.72	2958.00
769.16	2842.00
769.60	2894.00
770.04	2936.00
770.48	2839.00
770.92	2826.00
771.36	2973.00
771.80	2809.00
772.24	3621.00
772.68	2813.00
773.12	2787.00
773.56	2867.00
774.00	2761.00
774.44	2755.00
774.88	2729.00
775.32	2702.00
775.76	2923.00
776.20	2738.00
776.64	2744.00
777.07	2745.00
777.51	2805.00
777.95	2717.00
778.39	2713.00
778.83	2835.00
779.27	2763.00
779.71	2737.00
780.15	2700.00
780.59	3024.00
781.03	2924.00
781.47	2661.00
781.91	2657.00
782.35	3218.00
782.79	2776.00
783.23	2714.00
783.67	2615.00
784.11	2714.00
784.54	2671.00
784.98	2658.00
785.42	2738.00
785.86	2617.00
786.30	2627.00
786.74	2578.00
787.18	2629.00
787.62	2978.00
788.06	2724.00
788.50	2596.00
788.94	2596.00
789.37	2586.00
789.81	2650.00
790.25	2651.00
790.69	3052.00
791.13	2563.00
791.57	2544.00
792.01	2579.00
792.45	2563.00
792.88	2609.00
793.32	2853.00
793.76	2604.00
794.20	2772.00
794.64	2523.00
795.08	2501.00
795.52	2569.00
795.95	2587.00
796.39	2624.00
796.83	2588.00
797.27	2596.00
797.71	2496.00
798.15	2835.00
798.59	2546.00
799.02	2493.00
799.46	2527.00
799.90	2449.00
800.34	2813.00
800.78	2576.00
801.21	2456.00
801.65	2743.00
802.09	2485.00
802.53	2440.00
802.97	4221.00
803.40	2498.00
803.84	2418.00
804.28	2505.00
804.72	2604.00
805.16	2441.00
805.59	2559.00
806.03	2436.00
806.47	2438.00
806.91	2400.00
807.35	2385.00
807.78	2424.00
808.22	2626.00
808.66	2496.00
809.10	2502.00
809.53	2372.00
809.97	2396.00
810.41	2373.00
810.85	2653.00
811.28	2414.00
811.72	2343.00
812.16	2346.00
812.60	2335.00
813.03	2349.00
813.47	2646.00
813.91	2369.00
814.35	2441.00
814.78	2324.00
815.22	2345.00
815.66	2440.00
816.10	2439.00
816.53	2495.00
816.97	2963.00
817.41	2394.00
817.84	2340.00
818.28	2323.00
818.72	2344.00
819.16	2372.00
819.59	3327.00
820.03	2375.00
820.47	2334.00
820.90	2526.00
821.34	2314.00
821.78	2288.00
822.21	2261.00
822.65	2296.00
823.09	2265.00
823.52	2286.00
823.96	2283.00
824.40	2277.00
824.83	2270.00
825.27	2252.00
825.71	2333.00
826.14	2269.00
826.58	2436.00
827.02	2372.00
827.45	2276.00
827.89	2260.00
828.33	2299.00
828.76	2251.00
829.20	2191.00
829.64	2217.00
830.07	2207.00
830.51	2225.00
830.94	2242.00
831.38	2359.00
831.82	2954.00
832.25	2253.00
832.69	2310.00
833.13	2258.00
833.56	2684.00
834.00	2316.00
834.43	2379.00
834.87	2212.00
835.31	2197.00
835.74	2137.00
836.18	2153.00
836.61	2200.00
837.05	2215.00
837.49	2287.00
837.92	2165.00
838.36	2167.00
838.79	2188.00
839.23	2149.00
839.66	2575.00
840.10	2198.00
840.54	2143.00
840.97	2152.00
841.41	2116.00
841.84	2575.00
842.28	2178.00
842.71	2140.00
843.15	2287.00
843.58	2160.00
844.02	2183.00
844.46	2095.00
844.89	2127.00
845.33	2103.00
845.76	2100.00
846.20	2140.00
846.63	2195.00
847.07	2135.00
847.50	2213.00
847.94	2099.00
848.37	2871.00
848.81	2160.00
849.24	2184.00
849.68	2075.00
850.11	2940.00
850.55	2244.00
850.98	3232.00
851.42	2156.00
851.85	2052.00
852.29	2139.00
852.72	2215.00
853.16	2078.00
853.59	2142.00
854.03	2064.00
854.46	2032.00
854.90	2180.00
855.33	2042.00
855.77	2150.00
856.20	2117.00
856.64	2030.00
857.07	2086.00
857.51	2562.00
857.94	2082.00
858.37	2115.00
858.81	2002.00
859.24	2004.00
859.68	2004.00
860.11	1965.00
860.55	2009.00
860.98	2175.00
861.42	1976.00
861.85	2069.00
862.28	2001.00
862.72	2007.00
863.15	2015.00
863.59	2052.00
864.02	1969.00
864.45	2266.00
864.89	1994.00
865.32	2139.00
865.76	1968.00
866.19	1978.00
866.62	2120.00
867.06	1954.00
867.49	2150.00
867.93	2354.00
868.36	2242.00
868.79	1984.00
869.23	2016.00
869.66	2429.00
870.10	1996.00
870.53	1954.00
870.96	2020.00
871.40	1949.00
871.83	1934.00
872.26	1953.00
872.70	2091.00
873.13	1918.00
873.57	2051.00
874.00	1923.00
874.43	1913.00
874.87	2061.00
875.30	2108.00
875.73	1925.00
876.17	2000.00
876.60	1980.00
877.03	1896.00
877.47	1896.00
877.90	1896.00
878.33	1892.00
878.77	1928.00
879.20	1868.00
879.63	2131.00
880.07	1962.00
880.50	1911.00
880.93	1895.00
881.36	1992.00
881.80	1882.00
882.23	1884.00
882.66	2003.00
883.10	2027.00
883.53	2035.00
883.96	1937.00
884.40	1992.00
884.83	1871.00
885.26	2738.00
885.69	1964.00
886.13	1990.00
886.56	2061.00
886.99	1980.00
887.42	1868.00
887.86	1873.00
888.29	1872.00
888.72	1867.00
889.15	1853.00
889.59	1872.00
890.02	1865.00
890.45	1867.00
890.88	2003.00
891.32	2124.00
891.75	1971.00
892.18	1954.00
892.61	1924.00
893.05	1859.00
893.48	1859.00
893.91	1825.00
894.34	1856.00
894.78	1925.00
895.21	1896.00
895.64	1872.00
896.07	1893.00
896.50	1857.00
896.94	1829.00
897.37	1820.00
897.80	1970.00
898.23	1899.00
898.66	3070.00
899.10	2030.00
899.53	1866.00
899.96	1819.00
900.39	1864.00
900.82	1840.00
901.26	1819.00
901.69	1808.00
902.12	1840.00
902.55	1851.00
902.98	1844.00
903.41	1905.00
903.85	1819.00
904.28	2040.00
904.71	1799.00
905.14	1818.00
905.57	1816.00
906.00	1832.00
906.43	2022.00
906.87	1858.00
907.30	1886.00
907.73	1820.00
908.16	1818.00
908.59	1768.00
909.02	1810.00
909.45	1833.00
909.88	1900.00
910.32	1846.00
910.75	1873.00
911.18	1830.00
911.61	1809.00
912.04	1808.00
912.47	2279.00
912.90	2500.00
913.33	1832.00
913.76	2507.00
914.20	1934.00
914.63	1900.00
915.06	1832.00
915.49	1801.00
915.92	1769.00
916.35	1851.00
916.78	1760.00
917.21	1806.00
917.64	1863.00
918.07	1956.00
918.50	2150.00
918.93	1794.00
919.36	1754.00
919.80	1772.00
920.23	1848.00
920.66	1771.00
921.09	1837.00
921.52	1767.00
921.95	1752.00
922.38	1756.00
922.81	1872.00
923.24	1769.00
923.67	1928.00
924.10	1764.00
924.53	2199.00
924.96	1788.00
925.39	1771.00
925.82	1751.00
926.25	1818.00
926.68	1736.00
927.11	1876.00
927.54	1756.00
927.97	1688.00
928.40	1729.00
928.83	1749.00
929.26	1742.00
929.69	2226.00
930.12	1761.00
930.55	1746.00
930.98	1724.00
931.41	1939.00
931.84	1810.00
932.27	1729.00
932.70	2078.00
933.13	1834.00
933.56	1717.00
933.99	1776.00
934.42	1709.00
934.85	1718.00
935.28	1791.00
935.71	1710.00
936.14	1713.00
936.57	1760.00
937.00	1693.00
937.42	1782.00
937.85	1963.00
938.28	1811.00
938.71	2216.00
939.14	1709.00
939.57	1702.00
940.00	1670.00
940.43	1678.00
940.86	1649.00
941.29	1710.00
941.72	1685.00
942.15	1679.00
942.58	1664.00
943.00	1632.00
943.43	1803.00
943.86	1683.00
944.29	1677.00
944.72	2073.00
945.15	1832.00
945.58	1755.00
946.01	1840.00
946.44	1697.00
946.87	1749.00
947.29	1769.00
947.72	1742.00
948.15	1767.00
948.58	1678.00
949.01	1888.00
949.44	1706.00
949.87	1776.00
950.29	1678.00
950.72	1969.00
951.15	1689.00
951.58	1667.00
952.01	2256.00
952.44	1753.00
952.87	1667.00
953.29	1790.00
953.72	1736.00
954.15	1682.00
954.58	1679.00
955.01	1663.00
955.44	1790.00
955.86	1690.00
956.29	1664.00
956.72	1653.00
957.15	1681.00
957.58	1684.00
958.00	1744.00
958.43	1697.00
958.86	1750.00
959.29	1680.00
959.72	1669.00
960.14	1860.00
960.57	1687.00
961.00	1750.00
961.43	1698.00
961.86	2241.00
962.28	1941.00
962.71	1703.00
963.14	1754.00
963.57	1730.00
963.99	1700.00
964.42	1771.00
964.85	1700.00
965.28	1670.00
965.71	1763.00
966.13	1701.00
966.56	1758.00
966.99	1704.00
967.42	1677.00
967.84	1668.00
968.27	1758.00
968.70	1663.00
969.12	1665.00
969.55	1749.00
969.98	1874.00
970.41	1702.00
970.83	1832.00
971.26	1794.00
971.69	1671.00
972.12	2318.00
972.54	1793.00
972.97	1686.00
973.40	2246.00
973.82	1717.00
974.25	1753.00
974.68	1748.00
975.10	1714.00
975.53	1668.00
975.96	1677.00
976.39	1990.00
976.81	1721.00
977.24	1666.00
977.67	1709.00
978.09	1664.00
978.52	1750.00
978.95	1765.00
979.37	1700.00
979.80	1680.00
980.23	1683.00
980.65	1656.00
981.08	1668.00
981.51	1869.00
981.93	1691.00
982.36	1664.00
982.79	1695.00
983.21	1733.00
983.64	1699.00
984.06	1732.00
984.49	1676.00
984.92	1702.00
985.34	1633.00
985.77	1673.00
986.20	1690.00
986.62	1660.00
987.05	1742.00
987.47	1674.00
987.90	2516.00
988.33	1724.00
988.75	1742.00
989.18	1722.00
989.61	1772.00
990.03	1990.00
990.46	2032.00
990.88	1847.00
991.31	1839.00
991.73	1764.00
992.16	2031.00
992.59	1698.00
993.01	1675.00
993.44	1748.00
993.86	1682.00
994.29	1692.00
994.71	1653.00
995.14	1650.00
995.57	1663.00
995.99	1646.00
996.42	1649.00
996.84	1653.00
997.27	1692.00
997.69	1762.00
998.12	1875.00
998.54	1908.00
998.97	1655.00
999.40	1755.00
999.82	1644.00
1000.25	1658.00
1000.67	1647.00
1001.10	1672.00
1001.52	1691.00
1001.95	1862.00
1002.37	1674.00
1002.80	1752.00
1003.22	1658.00
1003.65	1669.00
1004.07	1633.00
1004.50	1635.00
1004.92	1860.00
1005.35	1683.00
1005.77	1671.00
1006.20	1649.00
1006.62	1722.00
1007.05	1674.00
1007.47	1652.00
1007.90	2229.00
1008.32	1722.00
1008.75	1664.00
1009.17	1728.00
1009.60	1659.00
1010.02	1724.00
1010.45	1657.00
1010.87	1744.00
1011.29	1670.00
1011.72	1641.00
1012.14	1641.00
1012.57	1707.00
1012.99	1638.00
1013.42	1671.00
1013.84	1648.00
1014.27	1725.00
1014.69	1765.00
1015.11	1665.00
1015.54	1635.00
1015.96	1655.00
1016.39	1720.00
1016.81	1742.00
1017.24	1795.00
1017.66	1733.00
1018.08	1657.00
1018.51	1735.00
1018.93	1656.00
1019.36	1615.00
1019.78	1723.00
1020.20	1740.00
1020.63	1659.00
1021.05	1820.00
1021.48	1667.00
1021.90	1653.00
1022.32	1646.00
1022.75	1632.00
1023.17	1831.00
1023.59	1644.00
1024.02	1650.00
1024.44	1704.00
1024.87	1671.00
1025.29	1642.00
1025.71	1673.00
1026.14	1980.00
1026.56	1901.00
1026.98	1682.00
1027.41	1648.00
1027.83	1620.00
1028.25	1671.00
1028.68	1638.00
1029.10	1892.00
1029.52	1646.00
1029.95	1661.00
1030.37	1638.00
1030.79	1711.00
1031.22	1666.00
1031.64	1642.00
1032.06	1622.00
1032.49	1651.00
1032.91	1652.00
1033.33	1725.00
1033.76	1626.00
1034.18	1639.00
1034.60	1632.00
1035.03	1674.00
1035.45	1630.00
1035.87	2634.00
1036.29	1817.00
1036.72	1793.00
1037.14	1659.00
1037.56	1640.00
1037.99	1644.00
1038.41	1719.00
1038.83	1704.00
1039.25	1662.00
1039.68	1628.00
1040.10	1616.00
1040.52	1648.00
1040.94	1629.00
1041.37	1606.00
1041.79	1644.00
1042.21	1635.00
1042.63	1705.00
1043.06	1620.00
1043.48	1639.00
1043.90	1659.00
1044.32	1674.00
1044.75	1663.00
1045.17	1992.00
1045.59	1870.00
1046.01	1762.00
1046.44	1797.00
1046.86	1685.00
1047.28	1639.00
1047.70	1717.00
1048.12	1667.00
1048.55	1670.00
1048.97	1852.00
1049.39	1689.00
1049.81	1620.00
1050.23	1704.00
1050.66	1682.00
1051.08	1622.00
1051.50	1713.00
1051.92	1628.00
1052.34	1805.00
1052.77	1715.00
1053.19	1659.00
1053.61	1614.00
1054.03	1677.00
1054.45	1637.00
1054.87	1644.00
1055.30	1617.00
1055.72	1627.00
1056.14	1793.00
1056.56	1736.00
1056.98	1612.00
1057.40	1724.00
1057.82	1644.00
1058.25	1614.00
1058.67	1631.00
1059.09	1657.00
1059.51	1794.00
1059.93	1668.00
1060.35	1668.00
1060.77	1646.00
1061.20	1647.00
1061.62	1701.00
1062.04	1826.00
1062.46	1650.00
1062.88	1612.00
1063.30	1709.00
1063.72	1614.00
1064.14	1659.00
1064.56	1740.00
1064.99	1663.00
1065.41	1644.00
1065.83	1670.00
1066.25	1651.00
1066.67	1683.00
1067.09	1644.00
1067.51	1609.00
1067.93	1749.00
1068.35	1674.00
1068.77	1648.00
1069.19	1793.00
1069.61	1718.00
1070.04	1630.00
1070.46	1639.00
1070.88	1618.00
1071.30	1613.00
1071.72	1626.00
1072.14	1608.00
1072.56	1613.00
1072.98	1633.00
1073.40	1700.00
1073.82	1623.00
1074.24	1617.00
1074.66	1595.00
1075.08	1612.00
1075.50	1722.00
1075.92	1657.00
1076.34	1647.00
1076.76	1625.00
1077.18	1694.00
1077.60	1612.00
1078.02	1623.00
1078.44	1742.00
1078.86	1768.00
1079.28	1750.00
1079.70	1713.00
1080.12	1697.00
1080.54	1625.00
1080.96	1627.00
1081.38	1624.00
1081.80	1613.00
1082.22	1719.00
1082.64	1855.00
1083.06	1752.00
1083.48	1723.00
1083.90	1629.00
1084.32	1608.00
1084.74	1597.00
1085.16	1961.00
1085.58	1668.00
1086.00	1646.00
1086.42	1660.00
1086.84	1713.00
1087.26	1630.00
1087.68	1713.00
1088.10	1656.00
1088.52	2163.00
1088.93	1664.00
1089.35	1738.00
1089.77	1649.00
1090.19	1687.00
1090.61	1667.00
1091.03	1797.00
1091.45	1706.00
1091.87	1617.00
1092.29	1639.00
1092.71	1640.00
1093.13	1651.00
1093.55	1619.00
1093.96	1691.00
1094.38	1628.00
1094.80	1617.00
1095.22	1621.00
1095.64	1608.00
1096.06	1613.00
1096.48	1608.00
1096.90	1616.00
1097.32	1615.00
1097.73	1642.00
1098.15	1624.00
1098.57	1663.00
1098.99	1631.00
1099.41	1640.00
1099.83	1608.00
1100.25	1598.00
1100.67	1681.00
1101.08	1824.00
1101.50	1637.00
1101.92	1758.00
1102.34	1706.00
1102.76	1630.00
>>>>>End Processed Spectral Data<<<<<
