SpectraSuite Data File
++++++++++++++++++++++++++++++++++++
Date: Wed Apr 05 12:19:23 EDT 2017
User: manoharanlab
Dark Spectrum Present: No
Reference Spectrum Present: No
Number of Sampled Component Spectra: 1
Spectrometers: HR+C0212
Integration Time (usec): 5000000 (HR+C0212)
Spectra Averaged: 1 (HR+C0212)
Boxcar Smoothing: 0 (HR+C0212)
Correct for Electrical Dark: No (HR+C0212)
Strobe/Lamp Enabled: No (HR+C0212)
Correct for Detector Non-linearity: No (HR+C0212)
Correct for Stray Light: No (HR+C0212)
Number of Pixels in Processed Spectrum: 2048
>>>>>Begin Processed Spectral Data<<<<<
188.35	1638.00
188.83	1583.00
189.30	1585.00
189.77	1574.00
190.25	1566.00
190.72	1990.00
191.20	1683.00
191.67	1785.00
192.14	1671.00
192.62	1640.00
193.09	1640.00
193.57	1657.00
194.04	1820.00
194.51	1660.00
194.99	1950.00
195.46	1670.00
195.94	1756.00
196.41	1678.00
196.88	1753.00
197.36	1719.00
197.83	2312.00
198.30	1691.00
198.78	1802.00
199.25	1665.00
199.72	1626.00
200.20	1649.00
200.67	1697.00
201.15	1696.00
201.62	1724.00
202.09	1823.00
202.57	1759.00
203.04	1698.00
203.51	1712.00
203.99	1703.00
204.46	1695.00
204.93	1776.00
205.41	1716.00
205.88	1714.00
206.35	1868.00
206.83	1695.00
207.30	1778.00
207.77	1707.00
208.24	1745.00
208.72	1776.00
209.19	1692.00
209.66	1760.00
210.14	1932.00
210.61	1805.00
211.08	2528.00
211.56	1766.00
212.03	1672.00
212.50	1988.00
212.97	1802.00
213.45	1785.00
213.92	1864.00
214.39	1691.00
214.87	1700.00
215.34	1701.00
215.81	1729.00
216.28	1684.00
216.76	1690.00
217.23	1965.00
217.70	1896.00
218.17	1776.00
218.65	1804.00
219.12	1669.00
219.59	1665.00
220.06	1734.00
220.54	3788.00
221.01	1860.00
221.48	1678.00
221.95	1676.00
222.43	1643.00
222.90	1786.00
223.37	1782.00
223.84	1795.00
224.31	1672.00
224.79	1665.00
225.26	1746.00
225.73	1920.00
226.20	1771.00
226.68	1684.00
227.15	1680.00
227.62	1707.00
228.09	1777.00
228.56	1687.00
229.04	1662.00
229.51	1909.00
229.98	1696.00
230.45	1647.00
230.92	1673.00
231.39	1693.00
231.87	1808.00
232.34	1713.00
232.81	1690.00
233.28	1672.00
233.75	1788.00
234.22	1657.00
234.70	1942.00
235.17	1720.00
235.64	1838.00
236.11	1704.00
236.58	1794.00
237.05	1690.00
237.53	1770.00
238.00	1707.00
238.47	2459.00
238.94	2162.00
239.41	1717.00
239.88	1766.00
240.35	1661.00
240.83	1843.00
241.30	1744.00
241.77	1690.00
242.24	1718.00
242.71	1668.00
243.18	1916.00
243.65	1701.00
244.12	1666.00
244.59	1659.00
245.07	1770.00
245.54	1698.00
246.01	1658.00
246.48	1672.00
246.95	1765.00
247.42	1761.00
247.89	1716.00
248.36	1750.00
248.83	1697.00
249.30	1646.00
249.77	1778.00
250.25	1705.00
250.72	1674.00
251.19	3105.00
251.66	1876.00
252.13	1674.00
252.60	1665.00
253.07	1708.00
253.54	1662.00
254.01	1707.00
254.48	1747.00
254.95	1761.00
255.42	1682.00
255.89	1654.00
256.36	1744.00
256.83	1670.00
257.30	1668.00
257.77	1752.00
258.24	1680.00
258.72	1675.00
259.19	1869.00
259.66	1698.00
260.13	1660.00
260.60	1862.00
261.07	1854.00
261.54	1685.00
262.01	1796.00
262.48	1754.00
262.95	1682.00
263.42	1672.00
263.89	1688.00
264.36	1690.00
264.83	1676.00
265.30	1781.00
265.77	1911.00
266.24	1702.00
266.71	2031.00
267.18	1686.00
267.65	1711.00
268.12	1676.00
268.59	1860.00
269.06	1675.00
269.52	1691.00
269.99	1687.00
270.46	1734.00
270.93	1747.00
271.40	1797.00
271.87	1674.00
272.34	1706.00
272.81	1772.00
273.28	1876.00
273.75	1804.00
274.22	1703.00
274.69	1651.00
275.16	1640.00
275.63	1762.00
276.10	1693.00
276.57	1805.00
277.04	1683.00
277.51	1665.00
277.97	1760.00
278.44	1672.00
278.91	1781.00
279.38	1689.00
279.85	1760.00
280.32	1731.00
280.79	1675.00
281.26	1824.00
281.73	1661.00
282.20	1647.00
282.67	1668.00
283.13	1683.00
283.60	1691.00
284.07	1675.00
284.54	1661.00
285.01	1661.00
285.48	2290.00
285.95	1706.00
286.42	1676.00
286.89	1737.00
287.35	1655.00
287.82	1681.00
288.29	1704.00
288.76	1694.00
289.23	1659.00
289.70	1769.00
290.17	1712.00
290.63	1749.00
291.10	1687.00
291.57	1669.00
292.04	1668.00
292.51	1687.00
292.98	1849.00
293.44	1696.00
293.91	1666.00
294.38	1702.00
294.85	1710.00
295.32	1759.00
295.79	1748.00
296.25	1664.00
296.72	1648.00
297.19	2445.00
297.66	1776.00
298.13	1759.00
298.59	1685.00
299.06	1783.00
299.53	1706.00
300.00	2574.00
300.47	1757.00
300.93	1709.00
301.40	1742.00
301.87	1672.00
302.34	1675.00
302.81	1656.00
303.27	1662.00
303.74	1674.00
304.21	1655.00
304.68	1657.00
305.14	1758.00
305.61	1745.00
306.08	1665.00
306.55	1887.00
307.02	1673.00
307.48	1786.00
307.95	1704.00
308.42	1695.00
308.89	1686.00
309.35	1737.00
309.82	1851.00
310.29	1745.00
310.76	1660.00
311.22	1709.00
311.69	1700.00
312.16	1636.00
312.62	1737.00
313.09	1669.00
313.56	1657.00
314.03	1761.00
314.49	1671.00
314.96	1750.00
315.43	1679.00
315.89	1750.00
316.36	1667.00
316.83	1655.00
317.30	1667.00
317.76	1738.00
318.23	1673.00
318.70	1675.00
319.16	1687.00
319.63	1687.00
320.10	1653.00
320.56	1686.00
321.03	1758.00
321.50	1797.00
321.96	1669.00
322.43	1665.00
322.90	1648.00
323.36	1666.00
323.83	1666.00
324.30	1663.00
324.76	1656.00
325.23	1757.00
325.70	1708.00
326.16	1759.00
326.63	1748.00
327.10	2690.00
327.56	1744.00
328.03	1748.00
328.50	1821.00
328.96	1675.00
329.43	1662.00
329.90	1674.00
330.36	1725.00
330.83	1821.00
331.29	1685.00
331.76	2189.00
332.23	1864.00
332.69	2742.00
333.16	1759.00
333.62	1684.00
334.09	1712.00
334.56	1662.00
335.02	1677.00
335.49	1679.00
335.95	1678.00
336.42	1671.00
336.89	1688.00
337.35	1780.00
337.82	1885.00
338.28	1934.00
338.75	1803.00
339.22	1685.00
339.68	2038.00
340.15	1724.00
340.61	1691.00
341.08	1665.00
341.54	1672.00
342.01	1751.00
342.48	1686.00
342.94	1666.00
343.41	1638.00
343.87	1656.00
344.34	1712.00
344.80	1842.00
345.27	1709.00
345.73	1819.00
346.20	7214.00
346.66	2023.00
347.13	1708.00
347.59	1676.00
348.06	1687.00
348.53	1850.00
348.99	1791.00
349.46	1759.00
349.92	1683.00
350.39	1814.00
350.85	1771.00
351.32	1792.00
351.78	1712.00
352.25	1749.00
352.71	1779.00
353.18	1691.00
353.64	1711.00
354.11	1682.00
354.57	1708.00
355.04	1725.00
355.50	1754.00
355.97	1686.00
356.43	1799.00
356.90	1699.00
357.36	2103.00
357.82	1718.00
358.29	1710.00
358.75	1692.00
359.22	1667.00
359.68	1706.00
360.15	1729.00
360.61	1762.00
361.08	1862.00
361.54	1966.00
362.01	1718.00
362.47	1674.00
362.93	1692.00
363.40	1678.00
363.86	1800.00
364.33	1690.00
364.79	1749.00
365.26	1729.00
365.72	1730.00
366.19	1774.00
366.65	1786.00
367.11	1842.00
367.58	1823.00
368.04	1793.00
368.51	1893.00
368.97	1720.00
369.43	1781.00
369.90	1726.00
370.36	1764.00
370.83	1908.00
371.29	1768.00
371.75	2708.00
372.22	1998.00
372.68	1729.00
373.15	2653.00
373.61	1817.00
374.07	1740.00
374.54	1708.00
375.00	1742.00
375.46	1700.00
375.93	1748.00
376.39	1733.00
376.86	1759.00
377.32	1813.00
377.78	1827.00
378.25	1765.00
378.71	1813.00
379.17	1743.00
379.64	1936.00
380.10	1808.00
380.56	2234.00
381.03	2236.00
381.49	1981.00
381.95	1784.00
382.42	5503.00
382.88	1998.00
383.34	1812.00
383.81	1776.00
384.27	1781.00
384.73	1871.00
385.20	1763.00
385.66	1762.00
386.12	1825.00
386.59	1778.00
387.05	1789.00
387.51	1757.00
387.97	1799.00
388.44	2469.00
388.90	1842.00
389.36	1885.00
389.83	1785.00
390.29	1806.00
390.75	1900.00
391.21	1794.00
391.68	1880.00
392.14	2745.00
392.60	2128.00
393.07	1903.00
393.53	1829.00
393.99	1822.00
394.45	2335.00
394.92	1958.00
395.38	1909.00
395.84	1942.00
396.30	1820.00
396.77	1806.00
397.23	2014.00
397.69	2035.00
398.15	1966.00
398.62	2052.00
399.08	1929.00
399.54	1976.00
400.00	1965.00
400.46	1858.00
400.93	1838.00
401.39	1956.00
401.85	1964.00
402.31	1875.00
402.78	1851.00
403.24	1986.00
403.70	1978.00
404.16	1885.00
404.62	3070.00
405.09	2270.00
405.55	1944.00
406.01	1945.00
406.47	1954.00
406.93	1926.00
407.40	1945.00
407.86	1911.00
408.32	1997.00
408.78	2020.00
409.24	2045.00
409.70	2145.00
410.17	1992.00
410.63	1965.00
411.09	2032.00
411.55	2022.00
412.01	2024.00
412.47	2156.00
412.94	2139.00
413.40	2167.00
413.86	1972.00
414.32	1986.00
414.78	2000.00
415.24	1971.00
415.71	2004.00
416.17	1952.00
416.63	1980.00
417.09	1984.00
417.55	2014.00
418.01	2432.00
418.47	2036.00
418.93	2060.00
419.40	2069.00
419.86	2027.00
420.32	2240.00
420.78	2096.00
421.24	2106.00
421.70	2057.00
422.16	2072.00
422.62	2078.00
423.08	2351.00
423.54	2146.00
424.01	2165.00
424.47	2028.00
424.93	2167.00
425.39	2829.00
425.85	2132.00
426.31	2078.00
426.77	2312.00
427.23	2221.00
427.69	2260.00
428.15	2179.00
428.61	2284.00
429.07	2335.00
429.53	2151.00
430.00	2176.00
430.46	2147.00
430.92	2142.00
431.38	2293.00
431.84	2289.00
432.30	2204.00
432.76	2269.00
433.22	2201.00
433.68	2459.00
434.14	2273.00
434.60	2426.00
435.06	2265.00
435.52	2362.00
435.98	2226.00
436.44	2283.00
436.90	2315.00
437.36	2366.00
437.82	2704.00
438.28	2408.00
438.74	2294.00
439.20	2332.00
439.66	2277.00
440.12	2347.00
440.58	2381.00
441.04	2359.00
441.50	2346.00
441.96	2340.00
442.42	2361.00
442.88	2508.00
443.34	2399.00
443.80	2326.00
444.26	2466.00
444.72	2372.00
445.18	2484.00
445.64	2480.00
446.10	2382.00
446.56	2389.00
447.02	2441.00
447.48	2424.00
447.94	2532.00
448.40	2565.00
448.86	2757.00
449.32	2437.00
449.77	2454.00
450.23	2859.00
450.69	2502.00
451.15	2578.00
451.61	2484.00
452.07	2467.00
452.53	2638.00
452.99	2559.00
453.45	3121.00
453.91	2733.00
454.37	2759.00
454.83	2666.00
455.29	2588.00
455.74	2595.00
456.20	2700.00
456.66	2699.00
457.12	2585.00
457.58	2621.00
458.04	2710.00
458.50	2674.00
458.96	2659.00
459.42	2759.00
459.88	2691.00
460.33	2766.00
460.79	2776.00
461.25	2757.00
461.71	3052.00
462.17	2892.00
462.63	2818.00
463.09	2931.00
463.54	2848.00
464.00	2887.00
464.46	3076.00
464.92	3076.00
465.38	3165.00
465.84	2939.00
466.30	2972.00
466.75	3041.00
467.21	3076.00
467.67	3038.00
468.13	3060.00
468.59	3276.00
469.05	3234.00
469.50	3267.00
469.96	3328.00
470.42	3349.00
470.88	3389.00
471.34	3353.00
471.80	3386.00
472.25	3442.00
472.71	3480.00
473.17	3597.00
473.63	3814.00
474.09	3606.00
474.54	3696.00
475.00	3603.00
475.46	3752.00
475.92	3869.00
476.38	3750.00
476.83	3812.00
477.29	3827.00
477.75	4532.00
478.21	4040.00
478.66	4024.00
479.12	4062.00
479.58	4103.00
480.04	5248.00
480.50	4379.00
480.95	5228.00
481.41	4377.00
481.87	5195.00
482.33	4393.00
482.78	4389.00
483.24	5056.00
483.70	4498.00
484.16	4523.00
484.61	4560.00
485.07	4692.00
485.53	5203.00
485.98	4780.00
486.44	4742.00
486.90	4899.00
487.36	4873.00
487.81	4970.00
488.27	5007.00
488.73	4955.00
489.18	4958.00
489.64	5317.00
490.10	5086.00
490.56	5096.00
491.01	5200.00
491.47	5104.00
491.93	5189.00
492.38	5203.00
492.84	5384.00
493.30	5232.00
493.75	5398.00
494.21	5342.00
494.67	5410.00
495.13	5456.00
495.58	5418.00
496.04	5460.00
496.50	5716.00
496.95	5613.00
497.41	5515.00
497.87	5594.00
498.32	5689.00
498.78	5927.00
499.23	5670.00
499.69	5700.00
500.15	5673.00
500.60	5699.00
501.06	5784.00
501.52	6795.00
501.97	5914.00
502.43	5881.00
502.89	5869.00
503.34	5853.00
503.80	5947.00
504.25	5908.00
504.71	5942.00
505.17	5953.00
505.62	6057.00
506.08	6080.00
506.54	6000.00
506.99	6462.00
507.45	6146.00
507.90	6201.00
508.36	6066.00
508.82	6246.00
509.27	6199.00
509.73	6205.00
510.18	6076.00
510.64	6156.00
511.10	6186.00
511.55	6264.00
512.01	6431.00
512.46	6211.00
512.92	6245.00
513.37	6249.00
513.83	6404.00
514.29	6288.00
514.74	6339.00
515.20	6327.00
515.65	6456.00
516.11	6265.00
516.56	6356.00
517.02	6675.00
517.47	6433.00
517.93	6406.00
518.39	6560.00
518.84	6356.00
519.30	6464.00
519.75	6526.00
520.21	6391.00
520.66	6544.00
521.12	6449.00
521.57	6478.00
522.03	6471.00
522.48	6516.00
522.94	6765.00
523.39	6460.00
523.85	6738.00
524.30	6574.00
524.76	6564.00
525.21	6502.00
525.67	6693.00
526.12	7051.00
526.58	6797.00
527.03	6689.00
527.49	6676.00
527.94	6721.00
528.40	6985.00
528.85	7014.00
529.31	6760.00
529.76	6758.00
530.22	6753.00
530.67	6861.00
531.13	6803.00
531.58	6852.00
532.03	6896.00
532.49	7100.00
532.94	7018.00
533.40	7008.00
533.85	7005.00
534.31	6944.00
534.76	6909.00
535.22	7056.00
535.67	7174.00
536.12	7064.00
536.58	7072.00
537.03	7108.00
537.49	7492.00
537.94	7819.00
538.40	7163.00
538.85	7138.00
539.30	7232.00
539.76	7243.00
540.21	7260.00
540.67	7976.00
541.12	7356.00
541.58	7263.00
542.03	7305.00
542.48	7383.00
542.94	7389.00
543.39	7480.00
543.84	8221.00
544.30	7818.00
544.75	7521.00
545.21	7458.00
545.66	7518.00
546.11	7625.00
546.57	7547.00
547.02	7578.00
547.48	7711.00
547.93	7860.00
548.38	7638.00
548.84	7954.00
549.29	7749.00
549.74	7855.00
550.20	7968.00
550.65	7745.00
551.10	7844.00
551.56	7859.00
552.01	7855.00
552.46	7802.00
552.92	7904.00
553.37	8388.00
553.82	7861.00
554.28	8010.00
554.73	7920.00
555.18	8032.00
555.64	7966.00
556.09	7877.00
556.54	8008.00
557.00	8010.00
557.45	7960.00
557.90	8686.00
558.36	8328.00
558.81	7930.00
559.26	8078.00
559.71	8181.00
560.17	7955.00
560.62	8033.00
561.07	7991.00
561.53	8038.00
561.98	8077.00
562.43	8050.00
562.88	8126.00
563.34	8611.00
563.79	7965.00
564.24	8031.00
564.70	8306.00
565.15	8294.00
565.60	8020.00
566.05	8094.00
566.51	8148.00
566.96	8050.00
567.41	8129.00
567.86	8154.00
568.32	8061.00
568.77	8112.00
569.22	8114.00
569.67	8115.00
570.12	8178.00
570.58	8131.00
571.03	8134.00
571.48	8152.00
571.93	8260.00
572.39	8215.00
572.84	8146.00
573.29	8968.00
573.74	8250.00
574.19	8230.00
574.65	8877.00
575.10	8367.00
575.55	8303.00
576.00	8268.00
576.45	8203.00
576.91	8343.00
577.36	8358.00
577.81	8237.00
578.26	8368.00
578.71	8777.00
579.17	8425.00
579.62	9115.00
580.07	8458.00
580.52	8467.00
580.97	8409.00
581.42	8448.00
581.88	8390.00
582.33	8464.00
582.78	8951.00
583.23	8463.00
583.68	8581.00
584.13	8494.00
584.59	8468.00
585.04	8635.00
585.49	8521.00
585.94	8570.00
586.39	8533.00
586.84	8553.00
587.29	8492.00
587.74	8620.00
588.20	8560.00
588.65	8658.00
589.10	8631.00
589.55	8684.00
590.00	8637.00
590.45	8613.00
590.90	8794.00
591.35	8770.00
591.81	8620.00
592.26	8523.00
592.71	8852.00
593.16	8768.00
593.61	9571.00
594.06	8798.00
594.51	8619.00
594.96	8826.00
595.41	8921.00
595.86	8838.00
596.31	8833.00
596.76	8760.00
597.22	8783.00
597.67	8814.00
598.12	9057.00
598.57	9058.00
599.02	8871.00
599.47	8916.00
599.92	8852.00
600.37	8939.00
600.82	8905.00
601.27	8836.00
601.72	8857.00
602.17	8885.00
602.62	9060.00
603.07	9018.00
603.52	8918.00
603.97	9363.00
604.42	9053.00
604.87	8987.00
605.32	8935.00
605.77	9035.00
606.22	8928.00
606.67	9053.00
607.12	9010.00
607.57	8939.00
608.02	9172.00
608.47	8966.00
608.92	9014.00
609.37	9028.00
609.82	9072.00
610.27	9061.00
610.72	9004.00
611.17	9902.00
611.62	9104.00
612.07	9164.00
612.52	9045.00
612.97	9472.00
613.42	9075.00
613.87	9036.00
614.32	9334.00
614.77	9101.00
615.22	9119.00
615.67	9112.00
616.12	9206.00
616.57	9199.00
617.02	9068.00
617.47	9168.00
617.92	9046.00
618.37	9099.00
618.82	9135.00
619.27	9123.00
619.72	9257.00
620.17	9202.00
620.62	9214.00
621.06	9153.00
621.51	9144.00
621.96	9427.00
622.41	9252.00
622.86	9196.00
623.31	9437.00
623.76	9597.00
624.21	9272.00
624.66	9322.00
625.11	9335.00
625.56	9276.00
626.00	9346.00
626.45	9269.00
626.90	9268.00
627.35	9350.00
627.80	9351.00
628.25	9203.00
628.70	9257.00
629.15	9311.00
629.60	9274.00
630.04	9278.00
630.49	9155.00
630.94	9220.00
631.39	9309.00
631.84	9272.00
632.29	9144.00
632.74	9230.00
633.18	9169.00
633.63	9316.00
634.08	9102.00
634.53	9070.00
634.98	9054.00
635.43	9082.00
635.88	9138.00
636.32	9059.00
636.77	9292.00
637.22	9091.00
637.67	9040.00
638.12	9013.00
638.56	9627.00
639.01	9124.00
639.46	9032.00
639.91	9211.00
640.36	9041.00
640.81	9082.00
641.25	9045.00
641.70	8909.00
642.15	8829.00
642.60	8878.00
643.05	8973.00
643.49	8841.00
643.94	8862.00
644.39	8728.00
644.84	8824.00
645.28	8854.00
645.73	8821.00
646.18	8774.00
646.63	8735.00
647.08	8767.00
647.52	8709.00
647.97	8628.00
648.42	9332.00
648.87	8699.00
649.31	9607.00
649.76	8687.00
650.21	8661.00
650.66	8908.00
651.10	8613.00
651.55	8600.00
652.00	8617.00
652.45	8537.00
652.89	8604.00
653.34	8538.00
653.79	8445.00
654.24	8488.00
654.68	8374.00
655.13	8598.00
655.58	8390.00
656.02	8410.00
656.47	8330.00
656.92	8618.00
657.37	8300.00
657.81	8336.00
658.26	8317.00
658.71	8220.00
659.15	8234.00
659.60	8198.00
660.05	8136.00
660.49	8068.00
660.94	8019.00
661.39	8055.00
661.83	9582.00
662.28	8004.00
662.73	8003.00
663.17	7928.00
663.62	8018.00
664.07	7994.00
664.51	7848.00
664.96	7873.00
665.41	7892.00
665.85	7694.00
666.30	7658.00
666.75	7756.00
667.19	7594.00
667.64	7618.00
668.09	7557.00
668.53	7546.00
668.98	7510.00
669.43	7411.00
669.87	7720.00
670.32	7260.00
670.76	7222.00
671.21	7217.00
671.66	7176.00
672.10	7153.00
672.55	7216.00
673.00	7055.00
673.44	7056.00
673.89	7335.00
674.33	6952.00
674.78	7824.00
675.23	7041.00
675.67	6917.00
676.12	6837.00
676.56	6850.00
677.01	6774.00
677.46	6735.00
677.90	6719.00
678.35	6772.00
678.79	6689.00
679.24	6597.00
679.68	6641.00
680.13	6712.00
680.58	7547.00
681.02	6437.00
681.47	6441.00
681.91	6406.00
682.36	6386.00
682.80	6538.00
683.25	6272.00
683.69	6366.00
684.14	6347.00
684.59	6306.00
685.03	6173.00
685.48	6177.00
685.92	6222.00
686.37	6199.00
686.81	6120.00
687.26	6077.00
687.70	6086.00
688.15	6045.00
688.59	6096.00
689.04	6016.00
689.48	5948.00
689.93	5964.00
690.37	5938.00
690.82	5872.00
691.26	5836.00
691.71	5838.00
692.15	6067.00
692.60	5750.00
693.04	5701.00
693.49	5788.00
693.93	5646.00
694.38	5648.00
694.82	5690.00
695.27	5629.00
695.71	5629.00
696.16	5623.00
696.60	5589.00
697.05	5650.00
697.49	5597.00
697.93	6023.00
698.38	5496.00
698.82	5482.00
699.27	5511.00
699.71	5480.00
700.16	5402.00
700.60	5326.00
701.05	5312.00
701.49	5464.00
701.93	5377.00
702.38	5302.00
702.82	5448.00
703.27	5338.00
703.71	5426.00
704.16	5333.00
704.60	5230.00
705.04	5184.00
705.49	5244.00
705.93	5175.00
706.38	5258.00
706.82	5218.00
707.26	5155.00
707.71	5118.00
708.15	5172.00
708.60	5065.00
709.04	5116.00
709.48	4974.00
709.93	5394.00
710.37	5108.00
710.82	4979.00
711.26	4976.00
711.70	5644.00
712.15	4958.00
712.59	4934.00
713.03	4925.00
713.48	4989.00
713.92	4817.00
714.37	4774.00
714.81	5848.00
715.25	4840.00
715.70	5231.00
716.14	4798.00
716.58	4692.00
717.03	4678.00
717.47	4669.00
717.91	4664.00
718.36	4616.00
718.80	4649.00
719.24	4610.00
719.69	4791.00
720.13	4556.00
720.57	4460.00
721.02	4483.00
721.46	4448.00
721.90	4521.00
722.35	4510.00
722.79	4324.00
723.23	4418.00
723.67	4478.00
724.12	4398.00
724.56	4775.00
725.00	4458.00
725.45	4336.00
725.89	4334.00
726.33	4394.00
726.77	4669.00
727.22	4405.00
727.66	4378.00
728.10	4287.00
728.55	4199.00
728.99	4255.00
729.43	4308.00
729.87	5412.00
730.32	4501.00
730.76	4631.00
731.20	4235.00
731.64	4302.00
732.09	4184.00
732.53	4163.00
732.97	4206.00
733.41	4189.00
733.86	4163.00
734.30	4204.00
734.74	4211.00
735.18	4065.00
735.62	4134.00
736.07	4087.00
736.51	4020.00
736.95	4158.00
737.39	4019.00
737.84	3967.00
738.28	3994.00
738.72	4208.00
739.16	3984.00
739.60	3992.00
740.05	3934.00
740.49	3934.00
740.93	3989.00
741.37	4354.00
741.81	3969.00
742.26	4792.00
742.70	3890.00
743.14	3790.00
743.58	3842.00
744.02	3919.00
744.46	3784.00
744.91	3938.00
745.35	3774.00
745.79	3804.00
746.23	3901.00
746.67	3728.00
747.11	3782.00
747.56	3827.00
748.00	3868.00
748.44	3826.00
748.88	3680.00
749.32	3676.00
749.76	3654.00
750.20	3656.00
750.65	3587.00
751.09	3706.00
751.53	3604.00
751.97	3605.00
752.41	3585.00
752.85	3757.00
753.29	3574.00
753.73	3468.00
754.18	3562.00
754.62	3758.00
755.06	3569.00
755.50	3650.00
755.94	4131.00
756.38	3470.00
756.82	3655.00
757.26	3560.00
757.70	3415.00
758.14	3376.00
758.58	3386.00
759.03	3448.00
759.47	3477.00
759.91	3335.00
760.35	3308.00
760.79	3364.00
761.23	3496.00
761.67	3391.00
762.11	3250.00
762.55	3281.00
762.99	3317.00
763.43	3235.00
763.87	3410.00
764.31	3230.00
764.75	3378.00
765.19	3410.00
765.63	3218.00
766.07	3183.00
766.51	3221.00
766.96	3141.00
767.40	3150.00
767.84	3267.00
768.28	3205.00
768.72	3204.00
769.16	3150.00
769.60	3141.00
770.04	3148.00
770.48	3087.00
770.92	3089.00
771.36	3134.00
771.80	3034.00
772.24	3808.00
772.68	3070.00
773.12	2992.00
773.56	3011.00
774.00	3035.00
774.44	3032.00
774.88	2976.00
775.32	2985.00
775.76	3132.00
776.20	2959.00
776.64	2918.00
777.07	2976.00
777.51	2944.00
777.95	2940.00
778.39	2896.00
778.83	3017.00
779.27	2976.00
779.71	2907.00
780.15	2892.00
780.59	3191.00
781.03	3140.00
781.47	2843.00
781.91	2842.00
782.35	3332.00
782.79	2927.00
783.23	2872.00
783.67	2782.00
784.11	2896.00
784.54	2834.00
784.98	2795.00
785.42	2911.00
785.86	2770.00
786.30	2748.00
786.74	2721.00
787.18	2702.00
787.62	3042.00
788.06	2879.00
788.50	2735.00
788.94	2702.00
789.37	2739.00
789.81	2723.00
790.25	2790.00
790.69	3140.00
791.13	2733.00
791.57	2674.00
792.01	2727.00
792.45	2674.00
792.88	2715.00
793.32	2965.00
793.76	2764.00
794.20	2878.00
794.64	2634.00
795.08	2608.00
795.52	2699.00
795.95	2664.00
796.39	2698.00
796.83	2666.00
797.27	2640.00
797.71	2570.00
798.15	2951.00
798.59	2620.00
799.02	2599.00
799.46	2608.00
799.90	2549.00
800.34	2843.00
800.78	2657.00
801.21	2540.00
801.65	2818.00
802.09	2524.00
802.53	2498.00
802.97	4212.00
803.40	2600.00
803.84	2512.00
804.28	2585.00
804.72	2653.00
805.16	2529.00
805.59	2606.00
806.03	2492.00
806.47	2500.00
806.91	2472.00
807.35	2437.00
807.78	2455.00
808.22	2664.00
808.66	2512.00
809.10	2540.00
809.53	2425.00
809.97	2389.00
810.41	2409.00
810.85	2718.00
811.28	2425.00
811.72	2432.00
812.16	2416.00
812.60	2367.00
813.03	2401.00
813.47	2639.00
813.91	2378.00
814.35	2451.00
814.78	2374.00
815.22	2406.00
815.66	2518.00
816.10	2458.00
816.53	2532.00
816.97	2966.00
817.41	2409.00
817.84	2324.00
818.28	2359.00
818.72	2340.00
819.16	2387.00
819.59	3315.00
820.03	2401.00
820.47	2323.00
820.90	2506.00
821.34	2331.00
821.78	2340.00
822.21	2297.00
822.65	2308.00
823.09	2279.00
823.52	2318.00
823.96	2308.00
824.40	2305.00
824.83	2303.00
825.27	2261.00
825.71	2357.00
826.14	2282.00
826.58	2414.00
827.02	2360.00
827.45	2264.00
827.89	2304.00
828.33	2342.00
828.76	2252.00
829.20	2233.00
829.64	2220.00
830.07	2237.00
830.51	2220.00
830.94	2252.00
831.38	2363.00
831.82	2943.00
832.25	2238.00
832.69	2325.00
833.13	2262.00
833.56	2662.00
834.00	2323.00
834.43	2356.00
834.87	2202.00
835.31	2197.00
835.74	2188.00
836.18	2164.00
836.61	2160.00
837.05	2172.00
837.49	2238.00
837.92	2190.00
838.36	2147.00
838.79	2194.00
839.23	2168.00
839.66	2534.00
840.10	2200.00
840.54	2157.00
840.97	2138.00
841.41	2143.00
841.84	2552.00
842.28	2132.00
842.71	2138.00
843.15	2290.00
843.58	2146.00
844.02	2184.00
844.46	2141.00
844.89	2119.00
845.33	2099.00
845.76	2089.00
846.20	2078.00
846.63	2167.00
847.07	2084.00
847.50	2143.00
847.94	2099.00
848.37	2832.00
848.81	2134.00
849.24	2168.00
849.68	2070.00
850.11	2848.00
850.55	2215.00
850.98	3196.00
851.42	2126.00
851.85	2078.00
852.29	2119.00
852.72	2235.00
853.16	2037.00
853.59	2114.00
854.03	2030.00
854.46	2013.00
854.90	2106.00
855.33	2055.00
855.77	2103.00
856.20	2070.00
856.64	2001.00
857.07	2023.00
857.51	2480.00
857.94	2052.00
858.37	2098.00
858.81	1970.00
859.24	2019.00
859.68	1968.00
860.11	1952.00
860.55	1956.00
860.98	2131.00
861.42	1977.00
861.85	2002.00
862.28	1963.00
862.72	1986.00
863.15	1950.00
863.59	2031.00
864.02	1949.00
864.45	2248.00
864.89	1975.00
865.32	2091.00
865.76	1949.00
866.19	1969.00
866.62	2107.00
867.06	1937.00
867.49	2106.00
867.93	2255.00
868.36	2205.00
868.79	1991.00
869.23	2010.00
869.66	2353.00
870.10	1945.00
870.53	1929.00
870.96	1985.00
871.40	1954.00
871.83	1937.00
872.26	1946.00
872.70	2094.00
873.13	1900.00
873.57	2000.00
874.00	1891.00
874.43	1882.00
874.87	2033.00
875.30	2087.00
875.73	1890.00
876.17	1965.00
876.60	1974.00
877.03	1904.00
877.47	1866.00
877.90	1886.00
878.33	1859.00
878.77	1866.00
879.20	1862.00
879.63	2080.00
880.07	1956.00
880.50	1879.00
880.93	1851.00
881.36	1935.00
881.80	1836.00
882.23	1885.00
882.66	1981.00
883.10	1973.00
883.53	1994.00
883.96	1904.00
884.40	1997.00
884.83	1856.00
885.26	2677.00
885.69	1954.00
886.13	1992.00
886.56	2051.00
886.99	1980.00
887.42	1859.00
887.86	1847.00
888.29	1835.00
888.72	1862.00
889.15	1820.00
889.59	1851.00
890.02	1823.00
890.45	1844.00
890.88	1984.00
891.32	2077.00
891.75	1952.00
892.18	1941.00
892.61	1897.00
893.05	1828.00
893.48	1842.00
893.91	1824.00
894.34	1828.00
894.78	1920.00
895.21	1900.00
895.64	1838.00
896.07	1860.00
896.50	1803.00
896.94	1818.00
897.37	1810.00
897.80	1959.00
898.23	1901.00
898.66	2991.00
899.10	1980.00
899.53	1806.00
899.96	1791.00
900.39	1826.00
900.82	1822.00
901.26	1795.00
901.69	1788.00
902.12	1824.00
902.55	1813.00
902.98	1822.00
903.41	1865.00
903.85	1774.00
904.28	1976.00
904.71	1815.00
905.14	1789.00
905.57	1813.00
906.00	1813.00
906.43	2027.00
906.87	1835.00
907.30	1832.00
907.73	1787.00
908.16	1776.00
908.59	1765.00
909.02	1790.00
909.45	1822.00
909.88	1827.00
910.32	1870.00
910.75	1869.00
911.18	1807.00
911.61	1778.00
912.04	1784.00
912.47	2222.00
912.90	2459.00
913.33	1832.00
913.76	2491.00
914.20	1938.00
914.63	1914.00
915.06	1783.00
915.49	1758.00
915.92	1759.00
916.35	1813.00
916.78	1776.00
917.21	1776.00
917.64	1839.00
918.07	1942.00
918.50	2093.00
918.93	1758.00
919.36	1776.00
919.80	1748.00
920.23	1805.00
920.66	1744.00
921.09	1812.00
921.52	1767.00
921.95	1730.00
922.38	1762.00
922.81	1852.00
923.24	1759.00
923.67	1893.00
924.10	1757.00
924.53	2171.00
924.96	1752.00
925.39	1740.00
925.82	1723.00
926.25	1792.00
926.68	1750.00
927.11	1840.00
927.54	1747.00
927.97	1707.00
928.40	1706.00
928.83	1723.00
929.26	1708.00
929.69	2203.00
930.12	1740.00
930.55	1711.00
930.98	1719.00
931.41	1910.00
931.84	1803.00
932.27	1719.00
932.70	2086.00
933.13	1795.00
933.56	1714.00
933.99	1788.00
934.42	1693.00
934.85	1695.00
935.28	1797.00
935.71	1688.00
936.14	1691.00
936.57	1759.00
937.00	1684.00
937.42	1765.00
937.85	1982.00
938.28	1811.00
938.71	2164.00
939.14	1728.00
939.57	1677.00
940.00	1670.00
940.43	1677.00
940.86	1666.00
941.29	1702.00
941.72	1680.00
942.15	1658.00
942.58	1656.00
943.00	1656.00
943.43	1810.00
943.86	1711.00
944.29	1670.00
944.72	2017.00
945.15	1806.00
945.58	1724.00
946.01	1826.00
946.44	1689.00
946.87	1728.00
947.29	1758.00
947.72	1736.00
948.15	1759.00
948.58	1671.00
949.01	1855.00
949.44	1723.00
949.87	1747.00
950.29	1681.00
950.72	1955.00
951.15	1691.00
951.58	1656.00
952.01	2203.00
952.44	1782.00
952.87	1683.00
953.29	1759.00
953.72	1735.00
954.15	1676.00
954.58	1665.00
955.01	1673.00
955.44	1748.00
955.86	1686.00
956.29	1672.00
956.72	1667.00
957.15	1687.00
957.58	1677.00
958.00	1775.00
958.43	1700.00
958.86	1743.00
959.29	1688.00
959.72	1669.00
960.14	1824.00
960.57	1676.00
961.00	1766.00
961.43	1712.00
961.86	2155.00
962.28	1924.00
962.71	1712.00
963.14	1715.00
963.57	1725.00
963.99	1698.00
964.42	1771.00
964.85	1695.00
965.28	1664.00
965.71	1749.00
966.13	1692.00
966.56	1763.00
966.99	1682.00
967.42	1664.00
967.84	1665.00
968.27	1723.00
968.70	1658.00
969.12	1652.00
969.55	1758.00
969.98	1857.00
970.41	1699.00
970.83	1820.00
971.26	1766.00
971.69	1662.00
972.12	2276.00
972.54	1790.00
972.97	1682.00
973.40	2192.00
973.82	1723.00
974.25	1725.00
974.68	1729.00
975.10	1697.00
975.53	1639.00
975.96	1682.00
976.39	1964.00
976.81	1744.00
977.24	1664.00
977.67	1695.00
978.09	1687.00
978.52	1754.00
978.95	1764.00
979.37	1716.00
979.80	1667.00
980.23	1671.00
980.65	1667.00
981.08	1673.00
981.51	1865.00
981.93	1654.00
982.36	1658.00
982.79	1708.00
983.21	1740.00
983.64	1671.00
984.06	1736.00
984.49	1695.00
984.92	1670.00
985.34	1665.00
985.77	1669.00
986.20	1656.00
986.62	1661.00
987.05	1747.00
987.47	1673.00
987.90	2482.00
988.33	1732.00
988.75	1719.00
989.18	1722.00
989.61	1756.00
990.03	1985.00
990.46	1965.00
990.88	1821.00
991.31	1843.00
991.73	1712.00
992.16	2012.00
992.59	1699.00
993.01	1680.00
993.44	1735.00
993.86	1678.00
994.29	1670.00
994.71	1644.00
995.14	1632.00
995.57	1650.00
995.99	1657.00
996.42	1665.00
996.84	1665.00
997.27	1682.00
997.69	1728.00
998.12	1881.00
998.54	1915.00
998.97	1666.00
999.40	1769.00
999.82	1652.00
1000.25	1666.00
1000.67	1633.00
1001.10	1666.00
1001.52	1696.00
1001.95	1858.00
1002.37	1672.00
1002.80	1733.00
1003.22	1671.00
1003.65	1675.00
1004.07	1640.00
1004.50	1658.00
1004.92	1837.00
1005.35	1683.00
1005.77	1680.00
1006.20	1632.00
1006.62	1743.00
1007.05	1693.00
1007.47	1656.00
1007.90	2206.00
1008.32	1723.00
1008.75	1634.00
1009.17	1727.00
1009.60	1660.00
1010.02	1717.00
1010.45	1656.00
1010.87	1751.00
1011.29	1646.00
1011.72	1638.00
1012.14	1662.00
1012.57	1716.00
1012.99	1677.00
1013.42	1663.00
1013.84	1626.00
1014.27	1738.00
1014.69	1732.00
1015.11	1659.00
1015.54	1639.00
1015.96	1639.00
1016.39	1704.00
1016.81	1741.00
1017.24	1776.00
1017.66	1714.00
1018.08	1667.00
1018.51	1707.00
1018.93	1633.00
1019.36	1653.00
1019.78	1761.00
1020.20	1706.00
1020.63	1646.00
1021.05	1802.00
1021.48	1647.00
1021.90	1636.00
1022.32	1648.00
1022.75	1636.00
1023.17	1782.00
1023.59	1657.00
1024.02	1662.00
1024.44	1702.00
1024.87	1652.00
1025.29	1640.00
1025.71	1645.00
1026.14	1939.00
1026.56	1871.00
1026.98	1663.00
1027.41	1640.00
1027.83	1651.00
1028.25	1687.00
1028.68	1640.00
1029.10	1900.00
1029.52	1656.00
1029.95	1642.00
1030.37	1629.00
1030.79	1718.00
1031.22	1664.00
1031.64	1629.00
1032.06	1628.00
1032.49	1647.00
1032.91	1653.00
1033.33	1710.00
1033.76	1648.00
1034.18	1646.00
1034.60	1627.00
1035.03	1667.00
1035.45	1651.00
1035.87	2584.00
1036.29	1814.00
1036.72	1787.00
1037.14	1660.00
1037.56	1636.00
1037.99	1648.00
1038.41	1726.00
1038.83	1709.00
1039.25	1670.00
1039.68	1648.00
1040.10	1649.00
1040.52	1648.00
1040.94	1639.00
1041.37	1627.00
1041.79	1648.00
1042.21	1630.00
1042.63	1697.00
1043.06	1646.00
1043.48	1616.00
1043.90	1645.00
1044.32	1664.00
1044.75	1665.00
1045.17	1964.00
1045.59	1858.00
1046.01	1752.00
1046.44	1793.00
1046.86	1693.00
1047.28	1644.00
1047.70	1743.00
1048.12	1678.00
1048.55	1700.00
1048.97	1811.00
1049.39	1679.00
1049.81	1629.00
1050.23	1701.00
1050.66	1693.00
1051.08	1640.00
1051.50	1725.00
1051.92	1643.00
1052.34	1774.00
1052.77	1735.00
1053.19	1649.00
1053.61	1628.00
1054.03	1668.00
1054.45	1627.00
1054.87	1631.00
1055.30	1622.00
1055.72	1617.00
1056.14	1800.00
1056.56	1738.00
1056.98	1634.00
1057.40	1722.00
1057.82	1644.00
1058.25	1631.00
1058.67	1622.00
1059.09	1665.00
1059.51	1784.00
1059.93	1661.00
1060.35	1664.00
1060.77	1630.00
1061.20	1630.00
1061.62	1708.00
1062.04	1810.00
1062.46	1642.00
1062.88	1631.00
1063.30	1729.00
1063.72	1624.00
1064.14	1651.00
1064.56	1714.00
1064.99	1678.00
1065.41	1626.00
1065.83	1657.00
1066.25	1652.00
1066.67	1705.00
1067.09	1647.00
1067.51	1628.00
1067.93	1746.00
1068.35	1689.00
1068.77	1649.00
1069.19	1801.00
1069.61	1744.00
1070.04	1640.00
1070.46	1640.00
1070.88	1647.00
1071.30	1622.00
1071.72	1637.00
1072.14	1614.00
1072.56	1650.00
1072.98	1634.00
1073.40	1709.00
1073.82	1623.00
1074.24	1632.00
1074.66	1621.00
1075.08	1622.00
1075.50	1706.00
1075.92	1643.00
1076.34	1655.00
1076.76	1635.00
1077.18	1693.00
1077.60	1641.00
1078.02	1643.00
1078.44	1736.00
1078.86	1777.00
1079.28	1724.00
1079.70	1706.00
1080.12	1680.00
1080.54	1641.00
1080.96	1653.00
1081.38	1632.00
1081.80	1645.00
1082.22	1733.00
1082.64	1856.00
1083.06	1740.00
1083.48	1759.00
1083.90	1673.00
1084.32	1604.00
1084.74	1607.00
1085.16	1941.00
1085.58	1666.00
1086.00	1640.00
1086.42	1677.00
1086.84	1721.00
1087.26	1620.00
1087.68	1709.00
1088.10	1659.00
1088.52	2112.00
1088.93	1696.00
1089.35	1714.00
1089.77	1635.00
1090.19	1687.00
1090.61	1654.00
1091.03	1796.00
1091.45	1713.00
1091.87	1629.00
1092.29	1605.00
1092.71	1630.00
1093.13	1673.00
1093.55	1590.00
1093.96	1666.00
1094.38	1627.00
1094.80	1648.00
1095.22	1635.00
1095.64	1597.00
1096.06	1637.00
1096.48	1619.00
1096.90	1612.00
1097.32	1632.00
1097.73	1657.00
1098.15	1632.00
1098.57	1684.00
1098.99	1626.00
1099.41	1626.00
1099.83	1627.00
1100.25	1630.00
1100.67	1702.00
1101.08	1806.00
1101.50	1658.00
1101.92	1764.00
1102.34	1716.00
1102.76	1633.00
>>>>>End Processed Spectral Data<<<<<
