SpectraSuite Data File
++++++++++++++++++++++++++++++++++++
Date: Wed Apr 05 12:17:58 EDT 2017
User: manoharanlab
Dark Spectrum Present: No
Reference Spectrum Present: No
Number of Sampled Component Spectra: 1
Spectrometers: HR+C0212
Integration Time (usec): 5000000 (HR+C0212)
Spectra Averaged: 1 (HR+C0212)
Boxcar Smoothing: 0 (HR+C0212)
Correct for Electrical Dark: No (HR+C0212)
Strobe/Lamp Enabled: No (HR+C0212)
Correct for Detector Non-linearity: No (HR+C0212)
Correct for Stray Light: No (HR+C0212)
Number of Pixels in Processed Spectrum: 2048
>>>>>Begin Processed Spectral Data<<<<<
188.35	1616.00
188.83	1593.00
189.30	1582.00
189.77	1585.00
190.25	1570.00
190.72	1990.00
191.20	1684.00
191.67	1772.00
192.14	1658.00
192.62	1654.00
193.09	1640.00
193.57	1654.00
194.04	1800.00
194.51	1665.00
194.99	1960.00
195.46	1663.00
195.94	1748.00
196.41	1664.00
196.88	1774.00
197.36	1728.00
197.83	2332.00
198.30	1684.00
198.78	1807.00
199.25	1677.00
199.72	1641.00
200.20	1642.00
200.67	1699.00
201.15	1684.00
201.62	1702.00
202.09	1820.00
202.57	1786.00
203.04	1703.00
203.51	1722.00
203.99	1719.00
204.46	1692.00
204.93	1752.00
205.41	1712.00
205.88	1697.00
206.35	1860.00
206.83	1685.00
207.30	1767.00
207.77	1727.00
208.24	1744.00
208.72	1775.00
209.19	1708.00
209.66	1752.00
210.14	1958.00
210.61	1807.00
211.08	2520.00
211.56	1744.00
212.03	1688.00
212.50	2150.00
212.97	1805.00
213.45	1810.00
213.92	1899.00
214.39	1668.00
214.87	1702.00
215.34	1680.00
215.81	1705.00
216.28	1680.00
216.76	1657.00
217.23	1988.00
217.70	1929.00
218.17	1773.00
218.65	1805.00
219.12	1682.00
219.59	1642.00
220.06	1750.00
220.54	3785.00
221.01	1866.00
221.48	1674.00
221.95	1664.00
222.43	1631.00
222.90	1798.00
223.37	1780.00
223.84	1771.00
224.31	1681.00
224.79	1671.00
225.26	1755.00
225.73	1931.00
226.20	1768.00
226.68	1693.00
227.15	1673.00
227.62	1700.00
228.09	1765.00
228.56	1694.00
229.04	1666.00
229.51	1901.00
229.98	1702.00
230.45	1691.00
230.92	1692.00
231.39	1672.00
231.87	1810.00
232.34	1706.00
232.81	1695.00
233.28	1670.00
233.75	1764.00
234.22	1640.00
234.70	1937.00
235.17	1726.00
235.64	1863.00
236.11	1692.00
236.58	1803.00
237.05	1682.00
237.53	1763.00
238.00	1706.00
238.47	2435.00
238.94	2130.00
239.41	1709.00
239.88	1765.00
240.35	1665.00
240.83	1869.00
241.30	1725.00
241.77	1709.00
242.24	1716.00
242.71	1687.00
243.18	1932.00
243.65	1723.00
244.12	1703.00
244.59	1654.00
245.07	1761.00
245.54	1700.00
246.01	1653.00
246.48	1670.00
246.95	1750.00
247.42	1762.00
247.89	1730.00
248.36	1773.00
248.83	1689.00
249.30	1672.00
249.77	1791.00
250.25	1724.00
250.72	1653.00
251.19	3117.00
251.66	1887.00
252.13	1657.00
252.60	1683.00
253.07	1719.00
253.54	1698.00
254.01	1736.00
254.48	1769.00
254.95	1790.00
255.42	1701.00
255.89	1665.00
256.36	1741.00
256.83	1678.00
257.30	1675.00
257.77	1722.00
258.24	1687.00
258.72	1681.00
259.19	1870.00
259.66	1704.00
260.13	1674.00
260.60	1884.00
261.07	1856.00
261.54	1679.00
262.01	1796.00
262.48	1748.00
262.95	1679.00
263.42	1641.00
263.89	1666.00
264.36	1686.00
264.83	1682.00
265.30	1786.00
265.77	1907.00
266.24	1677.00
266.71	2051.00
267.18	1701.00
267.65	1706.00
268.12	1681.00
268.59	1863.00
269.06	1671.00
269.52	1689.00
269.99	1681.00
270.46	1759.00
270.93	1769.00
271.40	1812.00
271.87	1668.00
272.34	1695.00
272.81	1769.00
273.28	1852.00
273.75	1831.00
274.22	1723.00
274.69	1665.00
275.16	1666.00
275.63	1738.00
276.10	1705.00
276.57	1809.00
277.04	1694.00
277.51	1660.00
277.97	1758.00
278.44	1664.00
278.91	1772.00
279.38	1699.00
279.85	1787.00
280.32	1740.00
280.79	1680.00
281.26	1805.00
281.73	1654.00
282.20	1651.00
282.67	1668.00
283.13	1693.00
283.60	1684.00
284.07	1676.00
284.54	1636.00
285.01	1662.00
285.48	2283.00
285.95	1719.00
286.42	1688.00
286.89	1733.00
287.35	1638.00
287.82	1664.00
288.29	1684.00
288.76	1683.00
289.23	1696.00
289.70	1793.00
290.17	1706.00
290.63	1759.00
291.10	1668.00
291.57	1668.00
292.04	1658.00
292.51	1692.00
292.98	1888.00
293.44	1672.00
293.91	1665.00
294.38	1707.00
294.85	1728.00
295.32	1751.00
295.79	1737.00
296.25	1677.00
296.72	1651.00
297.19	2460.00
297.66	1787.00
298.13	1748.00
298.59	1687.00
299.06	1771.00
299.53	1707.00
300.00	2564.00
300.47	1742.00
300.93	1698.00
301.40	1739.00
301.87	1662.00
302.34	1674.00
302.81	1663.00
303.27	1656.00
303.74	1681.00
304.21	1676.00
304.68	1687.00
305.14	1782.00
305.61	1726.00
306.08	1668.00
306.55	1899.00
307.02	1673.00
307.48	1741.00
307.95	1703.00
308.42	1707.00
308.89	1674.00
309.35	1752.00
309.82	1853.00
310.29	1739.00
310.76	1648.00
311.22	1708.00
311.69	1683.00
312.16	1650.00
312.62	1745.00
313.09	1677.00
313.56	1668.00
314.03	1759.00
314.49	1665.00
314.96	1745.00
315.43	1672.00
315.89	1724.00
316.36	1666.00
316.83	1656.00
317.30	1653.00
317.76	1753.00
318.23	1666.00
318.70	1682.00
319.16	1662.00
319.63	1681.00
320.10	1658.00
320.56	1690.00
321.03	1747.00
321.50	1814.00
321.96	1667.00
322.43	1708.00
322.90	1654.00
323.36	1660.00
323.83	1670.00
324.30	1651.00
324.76	1649.00
325.23	1740.00
325.70	1730.00
326.16	1748.00
326.63	1757.00
327.10	2672.00
327.56	1765.00
328.03	1750.00
328.50	1805.00
328.96	1676.00
329.43	1658.00
329.90	1691.00
330.36	1749.00
330.83	1840.00
331.29	1692.00
331.76	2135.00
332.23	1866.00
332.69	2731.00
333.16	1771.00
333.62	1689.00
334.09	1723.00
334.56	1668.00
335.02	1684.00
335.49	1674.00
335.95	1672.00
336.42	1650.00
336.89	1684.00
337.35	1767.00
337.82	1922.00
338.28	1956.00
338.75	1800.00
339.22	1692.00
339.68	2024.00
340.15	1725.00
340.61	1676.00
341.08	1685.00
341.54	1659.00
342.01	1734.00
342.48	1694.00
342.94	1691.00
343.41	1664.00
343.87	1665.00
344.34	1732.00
344.80	1843.00
345.27	1678.00
345.73	1860.00
346.20	7284.00
346.66	2021.00
347.13	1693.00
347.59	1676.00
348.06	1676.00
348.53	1832.00
348.99	1786.00
349.46	1747.00
349.92	1702.00
350.39	1822.00
350.85	1744.00
351.32	1787.00
351.78	1705.00
352.25	1771.00
352.71	1753.00
353.18	1690.00
353.64	1704.00
354.11	1678.00
354.57	1716.00
355.04	1725.00
355.50	1750.00
355.97	1668.00
356.43	1771.00
356.90	1705.00
357.36	2087.00
357.82	1708.00
358.29	1715.00
358.75	1692.00
359.22	1667.00
359.68	1699.00
360.15	1719.00
360.61	1774.00
361.08	1850.00
361.54	1946.00
362.01	1723.00
362.47	1676.00
362.93	1667.00
363.40	1712.00
363.86	1810.00
364.33	1712.00
364.79	1737.00
365.26	1724.00
365.72	1708.00
366.19	1780.00
366.65	1799.00
367.11	1881.00
367.58	1844.00
368.04	1795.00
368.51	1904.00
368.97	1729.00
369.43	1804.00
369.90	1738.00
370.36	1759.00
370.83	1897.00
371.29	1730.00
371.75	2684.00
372.22	2022.00
372.68	1712.00
373.15	2656.00
373.61	1806.00
374.07	1751.00
374.54	1714.00
375.00	1755.00
375.46	1728.00
375.93	1764.00
376.39	1726.00
376.86	1756.00
377.32	1788.00
377.78	1844.00
378.25	1760.00
378.71	1804.00
379.17	1749.00
379.64	1912.00
380.10	1797.00
380.56	2256.00
381.03	2265.00
381.49	1968.00
381.95	1787.00
382.42	5432.00
382.88	2009.00
383.34	1813.00
383.81	1770.00
384.27	1772.00
384.73	1850.00
385.20	1781.00
385.66	1769.00
386.12	1815.00
386.59	1761.00
387.05	1742.00
387.51	1760.00
387.97	1811.00
388.44	2484.00
388.90	1861.00
389.36	1893.00
389.83	1786.00
390.29	1784.00
390.75	1868.00
391.21	1784.00
391.68	1873.00
392.14	2745.00
392.60	2114.00
393.07	1924.00
393.53	1847.00
393.99	1855.00
394.45	2336.00
394.92	1945.00
395.38	1897.00
395.84	1917.00
396.30	1819.00
396.77	1822.00
397.23	1970.00
397.69	2004.00
398.15	1971.00
398.62	2075.00
399.08	1959.00
399.54	2016.00
400.00	1973.00
400.46	1874.00
400.93	1858.00
401.39	1977.00
401.85	1966.00
402.31	1862.00
402.78	1867.00
403.24	1976.00
403.70	1978.00
404.16	1894.00
404.62	3072.00
405.09	2293.00
405.55	1945.00
406.01	1962.00
406.47	1937.00
406.93	1944.00
407.40	1966.00
407.86	1917.00
408.32	1998.00
408.78	2006.00
409.24	2034.00
409.70	2143.00
410.17	1998.00
410.63	1986.00
411.09	2021.00
411.55	2021.00
412.01	2067.00
412.47	2174.00
412.94	2171.00
413.40	2197.00
413.86	1972.00
414.32	2005.00
414.78	1990.00
415.24	1969.00
415.71	2042.00
416.17	2002.00
416.63	2009.00
417.09	2009.00
417.55	1982.00
418.01	2435.00
418.47	2060.00
418.93	2092.00
419.40	2028.00
419.86	2030.00
420.32	2238.00
420.78	2086.00
421.24	2113.00
421.70	2055.00
422.16	2073.00
422.62	2114.00
423.08	2396.00
423.54	2152.00
424.01	2180.00
424.47	2084.00
424.93	2170.00
425.39	2828.00
425.85	2124.00
426.31	2144.00
426.77	2319.00
427.23	2240.00
427.69	2226.00
428.15	2185.00
428.61	2299.00
429.07	2340.00
429.53	2153.00
430.00	2167.00
430.46	2169.00
430.92	2191.00
431.38	2314.00
431.84	2297.00
432.30	2208.00
432.76	2301.00
433.22	2251.00
433.68	2511.00
434.14	2280.00
434.60	2454.00
435.06	2284.00
435.52	2347.00
435.98	2283.00
436.44	2322.00
436.90	2311.00
437.36	2359.00
437.82	2711.00
438.28	2472.00
438.74	2357.00
439.20	2359.00
439.66	2321.00
440.12	2382.00
440.58	2464.00
441.04	2415.00
441.50	2369.00
441.96	2328.00
442.42	2396.00
442.88	2541.00
443.34	2434.00
443.80	2377.00
444.26	2474.00
444.72	2409.00
445.18	2488.00
445.64	2448.00
446.10	2428.00
446.56	2445.00
447.02	2466.00
447.48	2484.00
447.94	2531.00
448.40	2616.00
448.86	2794.00
449.32	2447.00
449.77	2479.00
450.23	2901.00
450.69	2562.00
451.15	2618.00
451.61	2507.00
452.07	2519.00
452.53	2697.00
452.99	2617.00
453.45	3177.00
453.91	2746.00
454.37	2768.00
454.83	2713.00
455.29	2612.00
455.74	2615.00
456.20	2711.00
456.66	2688.00
457.12	2613.00
457.58	2710.00
458.04	2748.00
458.50	2694.00
458.96	2693.00
459.42	2809.00
459.88	2730.00
460.33	2811.00
460.79	2808.00
461.25	2777.00
461.71	3047.00
462.17	2938.00
462.63	2880.00
463.09	2972.00
463.54	2869.00
464.00	2932.00
464.46	3124.00
464.92	3139.00
465.38	3240.00
465.84	3005.00
466.30	3062.00
466.75	3116.00
467.21	3130.00
467.67	3156.00
468.13	3181.00
468.59	3381.00
469.05	3309.00
469.50	3345.00
469.96	3390.00
470.42	3370.00
470.88	3451.00
471.34	3365.00
471.80	3456.00
472.25	3487.00
472.71	3524.00
473.17	3642.00
473.63	3881.00
474.09	3659.00
474.54	3760.00
475.00	3720.00
475.46	3870.00
475.92	3941.00
476.38	3925.00
476.83	3888.00
477.29	3903.00
477.75	4566.00
478.21	4147.00
478.66	4100.00
479.12	4146.00
479.58	4164.00
480.04	5331.00
480.50	4512.00
480.95	5348.00
481.41	4476.00
481.87	5243.00
482.33	4450.00
482.78	4449.00
483.24	5145.00
483.70	4638.00
484.16	4644.00
484.61	4688.00
485.07	4782.00
485.53	5425.00
485.98	4929.00
486.44	4856.00
486.90	4964.00
487.36	5008.00
487.81	5058.00
488.27	5230.00
488.73	5104.00
489.18	5102.00
489.64	5484.00
490.10	5233.00
490.56	5161.00
491.01	5373.00
491.47	5330.00
491.93	5306.00
492.38	5306.00
492.84	5589.00
493.30	5400.00
493.75	5502.00
494.21	5432.00
494.67	5540.00
495.13	5589.00
495.58	5580.00
496.04	5607.00
496.50	5962.00
496.95	5792.00
497.41	5714.00
497.87	5872.00
498.32	5837.00
498.78	6043.00
499.23	5886.00
499.69	5896.00
500.15	5930.00
500.60	5939.00
501.06	5937.00
501.52	6951.00
501.97	6065.00
502.43	6028.00
502.89	6021.00
503.34	6072.00
503.80	6106.00
504.25	6125.00
504.71	6096.00
505.17	6162.00
505.62	6212.00
506.08	6241.00
506.54	6240.00
506.99	6644.00
507.45	6381.00
507.90	6354.00
508.36	6216.00
508.82	6446.00
509.27	6326.00
509.73	6396.00
510.18	6321.00
510.64	6385.00
511.10	6318.00
511.55	6416.00
512.01	6522.00
512.46	6448.00
512.92	6428.00
513.37	6389.00
513.83	6553.00
514.29	6545.00
514.74	6529.00
515.20	6523.00
515.65	6643.00
516.11	6446.00
516.56	6530.00
517.02	6768.00
517.47	6646.00
517.93	6590.00
518.39	6788.00
518.84	6585.00
519.30	6634.00
519.75	6694.00
520.21	6626.00
520.66	6677.00
521.12	6604.00
521.57	6672.00
522.03	6664.00
522.48	6701.00
522.94	6875.00
523.39	6728.00
523.85	6963.00
524.30	6819.00
524.76	6830.00
525.21	6749.00
525.67	6845.00
526.12	7161.00
526.58	7020.00
527.03	6886.00
527.49	6874.00
527.94	6953.00
528.40	7105.00
528.85	7193.00
529.31	6903.00
529.76	6912.00
530.22	6946.00
530.67	7063.00
531.13	6971.00
531.58	7163.00
532.03	7089.00
532.49	7198.00
532.94	7214.00
533.40	7096.00
533.85	7238.00
534.31	7152.00
534.76	7135.00
535.22	7208.00
535.67	7300.00
536.12	7227.00
536.58	7161.00
537.03	7389.00
537.49	7707.00
537.94	8021.00
538.40	7342.00
538.85	7287.00
539.30	7356.00
539.76	7402.00
540.21	7461.00
540.67	8115.00
541.12	7428.00
541.58	7431.00
542.03	7483.00
542.48	7560.00
542.94	7554.00
543.39	7575.00
543.84	8453.00
544.30	7922.00
544.75	7661.00
545.21	7706.00
545.66	7693.00
546.11	7834.00
546.57	7724.00
547.02	7739.00
547.48	7832.00
547.93	7984.00
548.38	7884.00
548.84	8076.00
549.29	7905.00
549.74	7934.00
550.20	8130.00
550.65	7917.00
551.10	8004.00
551.56	8006.00
552.01	7986.00
552.46	7978.00
552.92	8062.00
553.37	8568.00
553.82	8056.00
554.28	8206.00
554.73	7986.00
555.18	8186.00
555.64	8124.00
556.09	8012.00
556.54	8001.00
557.00	8101.00
557.45	7999.00
557.90	8852.00
558.36	8441.00
558.81	8080.00
559.26	8168.00
559.71	8149.00
560.17	8066.00
560.62	8063.00
561.07	8097.00
561.53	8153.00
561.98	8177.00
562.43	8093.00
562.88	8129.00
563.34	8696.00
563.79	8173.00
564.24	8142.00
564.70	8331.00
565.15	8378.00
565.60	8176.00
566.05	8209.00
566.51	8091.00
566.96	8093.00
567.41	8190.00
567.86	8272.00
568.32	8196.00
568.77	8228.00
569.22	8209.00
569.67	8161.00
570.12	8209.00
570.58	8191.00
571.03	8222.00
571.48	8223.00
571.93	8283.00
572.39	8216.00
572.84	8184.00
573.29	9016.00
573.74	8254.00
574.19	8232.00
574.65	8909.00
575.10	8377.00
575.55	8318.00
576.00	8286.00
576.45	8396.00
576.91	8294.00
577.36	8211.00
577.81	8357.00
578.26	8373.00
578.71	8677.00
579.17	8423.00
579.62	9149.00
580.07	8470.00
580.52	8334.00
580.97	8380.00
581.42	8408.00
581.88	8473.00
582.33	8502.00
582.78	8841.00
583.23	8450.00
583.68	8540.00
584.13	8486.00
584.59	8531.00
585.04	8646.00
585.49	8550.00
585.94	8596.00
586.39	8591.00
586.84	8657.00
587.29	8537.00
587.74	8589.00
588.20	8548.00
588.65	8683.00
589.10	8673.00
589.55	8707.00
590.00	8682.00
590.45	8630.00
590.90	8745.00
591.35	8782.00
591.81	8522.00
592.26	8525.00
592.71	8848.00
593.16	8695.00
593.61	9536.00
594.06	8754.00
594.51	8667.00
594.96	8818.00
595.41	8925.00
595.86	8842.00
596.31	8723.00
596.76	8782.00
597.22	8868.00
597.67	8719.00
598.12	8977.00
598.57	9003.00
599.02	8882.00
599.47	8946.00
599.92	8861.00
600.37	8980.00
600.82	8937.00
601.27	8906.00
601.72	8924.00
602.17	8869.00
602.62	9070.00
603.07	8985.00
603.52	8986.00
603.97	9399.00
604.42	8980.00
604.87	8966.00
605.32	8976.00
605.77	9045.00
606.22	8957.00
606.67	9063.00
607.12	9030.00
607.57	9027.00
608.02	9089.00
608.47	9073.00
608.92	8984.00
609.37	9121.00
609.82	9200.00
610.27	9158.00
610.72	9115.00
611.17	10048.00
611.62	9282.00
612.07	9310.00
612.52	9408.00
612.97	9625.00
613.42	9261.00
613.87	9215.00
614.32	9524.00
614.77	9368.00
615.22	9263.00
615.67	9398.00
616.12	9411.00
616.57	9460.00
617.02	9397.00
617.47	9506.00
617.92	9392.00
618.37	9409.00
618.82	9458.00
619.27	9564.00
619.72	9606.00
620.17	9645.00
620.62	9656.00
621.06	9653.00
621.51	9752.00
621.96	10040.00
622.41	9840.00
622.86	9844.00
623.31	10054.00
623.76	10268.00
624.21	10020.00
624.66	9985.00
625.11	10135.00
625.56	10107.00
626.00	10141.00
626.45	10135.00
626.90	10161.00
627.35	10206.00
627.80	10124.00
628.25	10124.00
628.70	10193.00
629.15	10248.00
629.60	10155.00
630.04	10352.00
630.49	10168.00
630.94	10203.00
631.39	10344.00
631.84	10195.00
632.29	10268.00
632.74	10222.00
633.18	10280.00
633.63	10278.00
634.08	10186.00
634.53	10121.00
634.98	10152.00
635.43	10124.00
635.88	10147.00
636.32	10181.00
636.77	10428.00
637.22	10238.00
637.67	10109.00
638.12	10003.00
638.56	10669.00
639.01	10151.00
639.46	10083.00
639.91	10326.00
640.36	10072.00
640.81	10087.00
641.25	10063.00
641.70	9991.00
642.15	9981.00
642.60	9914.00
643.05	9954.00
643.49	9968.00
643.94	9879.00
644.39	9941.00
644.84	9888.00
645.28	9823.00
645.73	9853.00
646.18	9742.00
646.63	9888.00
647.08	9739.00
647.52	9823.00
647.97	9806.00
648.42	10414.00
648.87	9812.00
649.31	10541.00
649.76	9777.00
650.21	9760.00
650.66	9950.00
651.10	9640.00
651.55	9594.00
652.00	9632.00
652.45	9565.00
652.89	9534.00
653.34	9563.00
653.79	9541.00
654.24	9497.00
654.68	9514.00
655.13	9625.00
655.58	9384.00
656.02	9464.00
656.47	9384.00
656.92	9681.00
657.37	9302.00
657.81	9387.00
658.26	9285.00
658.71	9216.00
659.15	9284.00
659.60	9216.00
660.05	9179.00
660.49	9052.00
660.94	9023.00
661.39	8976.00
661.83	10482.00
662.28	8977.00
662.73	8866.00
663.17	8785.00
663.62	8797.00
664.07	8834.00
664.51	8673.00
664.96	8574.00
665.41	8710.00
665.85	8514.00
666.30	8377.00
666.75	8466.00
667.19	8329.00
667.64	8234.00
668.09	8288.00
668.53	8300.00
668.98	8226.00
669.43	8053.00
669.87	8428.00
670.32	7884.00
670.76	7896.00
671.21	7930.00
671.66	7780.00
672.10	7775.00
672.55	7832.00
673.00	7628.00
673.44	7698.00
673.89	7889.00
674.33	7502.00
674.78	8338.00
675.23	7575.00
675.67	7426.00
676.12	7365.00
676.56	7464.00
677.01	7348.00
677.46	7241.00
677.90	7262.00
678.35	7148.00
678.79	7296.00
679.24	7057.00
679.68	7085.00
680.13	7180.00
680.58	7909.00
681.02	6991.00
681.47	6957.00
681.91	6816.00
682.36	6832.00
682.80	6955.00
683.25	6752.00
683.69	6800.00
684.14	6739.00
684.59	6743.00
685.03	6656.00
685.48	6612.00
685.92	6568.00
686.37	6690.00
686.81	6545.00
687.26	6435.00
687.70	6456.00
688.15	6388.00
688.59	6542.00
689.04	6449.00
689.48	6340.00
689.93	6322.00
690.37	6286.00
690.82	6266.00
691.26	6257.00
691.71	6229.00
692.15	6372.00
692.60	6168.00
693.04	6092.00
693.49	6068.00
693.93	6091.00
694.38	6055.00
694.82	5982.00
695.27	5959.00
695.71	5968.00
696.16	6018.00
696.60	5864.00
697.05	5933.00
697.49	5947.00
697.93	6362.00
698.38	5835.00
698.82	5871.00
699.27	5807.00
699.71	5822.00
700.16	5853.00
700.60	5675.00
701.05	5618.00
701.49	5776.00
701.93	5634.00
702.38	5579.00
702.82	5650.00
703.27	5694.00
703.71	5620.00
704.16	5612.00
704.60	5555.00
705.04	5512.00
705.49	5436.00
705.93	5454.00
706.38	5495.00
706.82	5535.00
707.26	5492.00
707.71	5408.00
708.15	5467.00
708.60	5291.00
709.04	5320.00
709.48	5325.00
709.93	5646.00
710.37	5395.00
710.82	5258.00
711.26	5286.00
711.70	5791.00
712.15	5182.00
712.59	5129.00
713.03	5268.00
713.48	5316.00
713.92	5094.00
714.37	5059.00
714.81	6101.00
715.25	5079.00
715.70	5493.00
716.14	5093.00
716.58	4912.00
717.03	4946.00
717.47	4889.00
717.91	4896.00
718.36	4855.00
718.80	4958.00
719.24	4912.00
719.69	5022.00
720.13	4817.00
720.57	4717.00
721.02	4671.00
721.46	4725.00
721.90	4761.00
722.35	4725.00
722.79	4640.00
723.23	4682.00
723.67	4661.00
724.12	4599.00
724.56	4858.00
725.00	4586.00
725.45	4561.00
725.89	4540.00
726.33	4570.00
726.77	4821.00
727.22	4664.00
727.66	4619.00
728.10	4513.00
728.55	4500.00
728.99	4489.00
729.43	4432.00
729.87	5653.00
730.32	4658.00
730.76	4839.00
731.20	4452.00
731.64	4428.00
732.09	4373.00
732.53	4334.00
732.97	4430.00
733.41	4374.00
733.86	4331.00
734.30	4400.00
734.74	4380.00
735.18	4254.00
735.62	4327.00
736.07	4257.00
736.51	4182.00
736.95	4343.00
737.39	4238.00
737.84	4191.00
738.28	4188.00
738.72	4339.00
739.16	4170.00
739.60	4090.00
740.05	4083.00
740.49	4113.00
740.93	4194.00
741.37	4510.00
741.81	4086.00
742.26	4940.00
742.70	4058.00
743.14	4039.00
743.58	4017.00
744.02	4042.00
744.46	3984.00
744.91	4142.00
745.35	3992.00
745.79	3904.00
746.23	4010.00
746.67	3911.00
747.11	3926.00
747.56	4024.00
748.00	4009.00
748.44	3928.00
748.88	3837.00
749.32	3832.00
749.76	3788.00
750.20	3786.00
750.65	3769.00
751.09	3807.00
751.53	3762.00
751.97	3762.00
752.41	3762.00
752.85	3900.00
753.29	3726.00
753.73	3671.00
754.18	3686.00
754.62	3916.00
755.06	3657.00
755.50	3785.00
755.94	4229.00
756.38	3634.00
756.82	3838.00
757.26	3677.00
757.70	3564.00
758.14	3515.00
758.58	3512.00
759.03	3568.00
759.47	3596.00
759.91	3504.00
760.35	3449.00
760.79	3497.00
761.23	3637.00
761.67	3554.00
762.11	3411.00
762.55	3387.00
762.99	3448.00
763.43	3402.00
763.87	3480.00
764.31	3345.00
764.75	3467.00
765.19	3532.00
765.63	3348.00
766.07	3308.00
766.51	3292.00
766.96	3271.00
767.40	3288.00
767.84	3389.00
768.28	3374.00
768.72	3353.00
769.16	3237.00
769.60	3264.00
770.04	3257.00
770.48	3180.00
770.92	3255.00
771.36	3271.00
771.80	3188.00
772.24	3950.00
772.68	3166.00
773.12	3131.00
773.56	3156.00
774.00	3098.00
774.44	3123.00
774.88	3090.00
775.32	3080.00
775.76	3238.00
776.20	3080.00
776.64	3027.00
777.07	3030.00
777.51	3114.00
777.95	3013.00
778.39	3008.00
778.83	3121.00
779.27	3056.00
779.71	3068.00
780.15	2933.00
780.59	3300.00
781.03	3249.00
781.47	2954.00
781.91	2928.00
782.35	3415.00
782.79	3045.00
783.23	2986.00
783.67	2876.00
784.11	2984.00
784.54	2875.00
784.98	2867.00
785.42	3017.00
785.86	2870.00
786.30	2809.00
786.74	2872.00
787.18	2801.00
787.62	3162.00
788.06	2900.00
788.50	2790.00
788.94	2759.00
789.37	2759.00
789.81	2803.00
790.25	2836.00
790.69	3225.00
791.13	2797.00
791.57	2763.00
792.01	2775.00
792.45	2761.00
792.88	2810.00
793.32	3000.00
793.76	2828.00
794.20	2978.00
794.64	2712.00
795.08	2714.00
795.52	2729.00
795.95	2715.00
796.39	2807.00
796.83	2754.00
797.27	2764.00
797.71	2634.00
798.15	2980.00
798.59	2689.00
799.02	2657.00
799.46	2706.00
799.90	2648.00
800.34	2943.00
800.78	2752.00
801.21	2588.00
801.65	2903.00
802.09	2590.00
802.53	2587.00
802.97	4318.00
803.40	2674.00
803.84	2559.00
804.28	2591.00
804.72	2708.00
805.16	2628.00
805.59	2666.00
806.03	2542.00
806.47	2550.00
806.91	2539.00
807.35	2531.00
807.78	2482.00
808.22	2734.00
808.66	2583.00
809.10	2600.00
809.53	2508.00
809.97	2461.00
810.41	2464.00
810.85	2732.00
811.28	2502.00
811.72	2480.00
812.16	2450.00
812.60	2445.00
813.03	2502.00
813.47	2719.00
813.91	2443.00
814.35	2545.00
814.78	2424.00
815.22	2462.00
815.66	2557.00
816.10	2507.00
816.53	2572.00
816.97	3011.00
817.41	2471.00
817.84	2399.00
818.28	2465.00
818.72	2385.00
819.16	2457.00
819.59	3390.00
820.03	2445.00
820.47	2382.00
820.90	2570.00
821.34	2374.00
821.78	2361.00
822.21	2304.00
822.65	2371.00
823.09	2335.00
823.52	2330.00
823.96	2337.00
824.40	2362.00
824.83	2314.00
825.27	2291.00
825.71	2405.00
826.14	2332.00
826.58	2463.00
827.02	2409.00
827.45	2309.00
827.89	2313.00
828.33	2360.00
828.76	2324.00
829.20	2273.00
829.64	2289.00
830.07	2280.00
830.51	2269.00
830.94	2274.00
831.38	2409.00
831.82	2929.00
832.25	2320.00
832.69	2328.00
833.13	2334.00
833.56	2707.00
834.00	2381.00
834.43	2418.00
834.87	2239.00
835.31	2228.00
835.74	2228.00
836.18	2229.00
836.61	2209.00
837.05	2212.00
837.49	2297.00
837.92	2219.00
838.36	2140.00
838.79	2209.00
839.23	2184.00
839.66	2549.00
840.10	2169.00
840.54	2178.00
840.97	2171.00
841.41	2164.00
841.84	2640.00
842.28	2203.00
842.71	2143.00
843.15	2297.00
843.58	2168.00
844.02	2206.00
844.46	2128.00
844.89	2138.00
845.33	2134.00
845.76	2093.00
846.20	2100.00
846.63	2205.00
847.07	2122.00
847.50	2180.00
847.94	2123.00
848.37	2865.00
848.81	2185.00
849.24	2206.00
849.68	2112.00
850.11	2920.00
850.55	2229.00
850.98	3201.00
851.42	2157.00
851.85	2074.00
852.29	2171.00
852.72	2260.00
853.16	2087.00
853.59	2158.00
854.03	2066.00
854.46	2037.00
854.90	2166.00
855.33	2084.00
855.77	2147.00
856.20	2097.00
856.64	2039.00
857.07	2083.00
857.51	2556.00
857.94	2087.00
858.37	2125.00
858.81	2023.00
859.24	2026.00
859.68	2002.00
860.11	2002.00
860.55	2005.00
860.98	2192.00
861.42	1995.00
861.85	2079.00
862.28	2004.00
862.72	2030.00
863.15	2006.00
863.59	2058.00
864.02	2005.00
864.45	2232.00
864.89	2008.00
865.32	2144.00
865.76	1966.00
866.19	1960.00
866.62	2133.00
867.06	1961.00
867.49	2124.00
867.93	2281.00
868.36	2233.00
868.79	2032.00
869.23	2032.00
869.66	2375.00
870.10	1962.00
870.53	1945.00
870.96	2001.00
871.40	1960.00
871.83	1929.00
872.26	1951.00
872.70	2103.00
873.13	1924.00
873.57	2020.00
874.00	1912.00
874.43	1876.00
874.87	2056.00
875.30	2085.00
875.73	1903.00
876.17	2008.00
876.60	2013.00
877.03	1907.00
877.47	1894.00
877.90	1904.00
878.33	1884.00
878.77	1912.00
879.20	1874.00
879.63	2130.00
880.07	1994.00
880.50	1892.00
880.93	1867.00
881.36	1975.00
881.80	1897.00
882.23	1888.00
882.66	1980.00
883.10	1977.00
883.53	2013.00
883.96	1904.00
884.40	1964.00
884.83	1863.00
885.26	2674.00
885.69	1964.00
886.13	1997.00
886.56	2070.00
886.99	1971.00
887.42	1896.00
887.86	1853.00
888.29	1832.00
888.72	1885.00
889.15	1844.00
889.59	1842.00
890.02	1832.00
890.45	1868.00
890.88	1990.00
891.32	2087.00
891.75	1949.00
892.18	1948.00
892.61	1894.00
893.05	1864.00
893.48	1884.00
893.91	1850.00
894.34	1845.00
894.78	1928.00
895.21	1899.00
895.64	1838.00
896.07	1877.00
896.50	1835.00
896.94	1819.00
897.37	1807.00
897.80	1964.00
898.23	1923.00
898.66	2993.00
899.10	2010.00
899.53	1858.00
899.96	1840.00
900.39	1830.00
900.82	1831.00
901.26	1819.00
901.69	1792.00
902.12	1825.00
902.55	1818.00
902.98	1804.00
903.41	1906.00
903.85	1788.00
904.28	1974.00
904.71	1810.00
905.14	1788.00
905.57	1808.00
906.00	1821.00
906.43	2005.00
906.87	1804.00
907.30	1886.00
907.73	1792.00
908.16	1817.00
908.59	1791.00
909.02	1796.00
909.45	1821.00
909.88	1849.00
910.32	1866.00
910.75	1921.00
911.18	1794.00
911.61	1795.00
912.04	1813.00
912.47	2221.00
912.90	2476.00
913.33	1823.00
913.76	2477.00
914.20	1901.00
914.63	1920.00
915.06	1785.00
915.49	1781.00
915.92	1767.00
916.35	1835.00
916.78	1768.00
917.21	1787.00
917.64	1829.00
918.07	1950.00
918.50	2122.00
918.93	1785.00
919.36	1782.00
919.80	1750.00
920.23	1833.00
920.66	1777.00
921.09	1825.00
921.52	1738.00
921.95	1746.00
922.38	1767.00
922.81	1846.00
923.24	1755.00
923.67	1883.00
924.10	1752.00
924.53	2187.00
924.96	1770.00
925.39	1753.00
925.82	1760.00
926.25	1813.00
926.68	1760.00
927.11	1848.00
927.54	1756.00
927.97	1731.00
928.40	1716.00
928.83	1751.00
929.26	1710.00
929.69	2187.00
930.12	1766.00
930.55	1734.00
930.98	1731.00
931.41	1888.00
931.84	1823.00
932.27	1730.00
932.70	2079.00
933.13	1834.00
933.56	1693.00
933.99	1785.00
934.42	1711.00
934.85	1693.00
935.28	1798.00
935.71	1692.00
936.14	1696.00
936.57	1755.00
937.00	1686.00
937.42	1778.00
937.85	1980.00
938.28	1790.00
938.71	2158.00
939.14	1721.00
939.57	1686.00
940.00	1662.00
940.43	1687.00
940.86	1681.00
941.29	1720.00
941.72	1681.00
942.15	1675.00
942.58	1668.00
943.00	1643.00
943.43	1806.00
943.86	1706.00
944.29	1680.00
944.72	2032.00
945.15	1825.00
945.58	1719.00
946.01	1827.00
946.44	1661.00
946.87	1742.00
947.29	1757.00
947.72	1766.00
948.15	1766.00
948.58	1700.00
949.01	1868.00
949.44	1715.00
949.87	1761.00
950.29	1676.00
950.72	1963.00
951.15	1694.00
951.58	1673.00
952.01	2200.00
952.44	1794.00
952.87	1675.00
953.29	1793.00
953.72	1743.00
954.15	1662.00
954.58	1676.00
955.01	1675.00
955.44	1773.00
955.86	1688.00
956.29	1656.00
956.72	1668.00
957.15	1694.00
957.58	1671.00
958.00	1763.00
958.43	1698.00
958.86	1753.00
959.29	1688.00
959.72	1667.00
960.14	1858.00
960.57	1678.00
961.00	1742.00
961.43	1705.00
961.86	2186.00
962.28	1932.00
962.71	1694.00
963.14	1742.00
963.57	1757.00
963.99	1686.00
964.42	1761.00
964.85	1711.00
965.28	1669.00
965.71	1758.00
966.13	1712.00
966.56	1772.00
966.99	1699.00
967.42	1648.00
967.84	1683.00
968.27	1764.00
968.70	1672.00
969.12	1664.00
969.55	1750.00
969.98	1870.00
970.41	1713.00
970.83	1830.00
971.26	1766.00
971.69	1656.00
972.12	2298.00
972.54	1798.00
972.97	1687.00
973.40	2230.00
973.82	1728.00
974.25	1742.00
974.68	1742.00
975.10	1708.00
975.53	1662.00
975.96	1676.00
976.39	1981.00
976.81	1722.00
977.24	1658.00
977.67	1695.00
978.09	1657.00
978.52	1740.00
978.95	1774.00
979.37	1702.00
979.80	1656.00
980.23	1676.00
980.65	1647.00
981.08	1670.00
981.51	1873.00
981.93	1677.00
982.36	1671.00
982.79	1708.00
983.21	1754.00
983.64	1677.00
984.06	1757.00
984.49	1715.00
984.92	1682.00
985.34	1668.00
985.77	1657.00
986.20	1681.00
986.62	1650.00
987.05	1775.00
987.47	1671.00
987.90	2472.00
988.33	1720.00
988.75	1759.00
989.18	1727.00
989.61	1759.00
990.03	1963.00
990.46	1969.00
990.88	1829.00
991.31	1842.00
991.73	1722.00
992.16	2011.00
992.59	1694.00
993.01	1688.00
993.44	1708.00
993.86	1673.00
994.29	1689.00
994.71	1651.00
995.14	1644.00
995.57	1653.00
995.99	1666.00
996.42	1664.00
996.84	1670.00
997.27	1689.00
997.69	1746.00
998.12	1877.00
998.54	1890.00
998.97	1674.00
999.40	1745.00
999.82	1667.00
1000.25	1660.00
1000.67	1661.00
1001.10	1671.00
1001.52	1708.00
1001.95	1861.00
1002.37	1686.00
1002.80	1746.00
1003.22	1676.00
1003.65	1670.00
1004.07	1648.00
1004.50	1663.00
1004.92	1841.00
1005.35	1686.00
1005.77	1659.00
1006.20	1654.00
1006.62	1744.00
1007.05	1706.00
1007.47	1648.00
1007.90	2220.00
1008.32	1716.00
1008.75	1648.00
1009.17	1724.00
1009.60	1658.00
1010.02	1704.00
1010.45	1650.00
1010.87	1748.00
1011.29	1629.00
1011.72	1652.00
1012.14	1652.00
1012.57	1719.00
1012.99	1662.00
1013.42	1668.00
1013.84	1638.00
1014.27	1742.00
1014.69	1843.00
1015.11	1688.00
1015.54	1645.00
1015.96	1617.00
1016.39	1731.00
1016.81	1731.00
1017.24	1775.00
1017.66	1736.00
1018.08	1653.00
1018.51	1725.00
1018.93	1642.00
1019.36	1642.00
1019.78	1750.00
1020.20	1724.00
1020.63	1658.00
1021.05	1806.00
1021.48	1679.00
1021.90	1633.00
1022.32	1652.00
1022.75	1634.00
1023.17	1826.00
1023.59	1681.00
1024.02	1641.00
1024.44	1684.00
1024.87	1661.00
1025.29	1646.00
1025.71	1669.00
1026.14	1944.00
1026.56	1894.00
1026.98	1676.00
1027.41	1644.00
1027.83	1652.00
1028.25	1670.00
1028.68	1626.00
1029.10	1889.00
1029.52	1653.00
1029.95	1648.00
1030.37	1641.00
1030.79	1709.00
1031.22	1664.00
1031.64	1639.00
1032.06	1643.00
1032.49	1681.00
1032.91	1666.00
1033.33	1722.00
1033.76	1644.00
1034.18	1650.00
1034.60	1645.00
1035.03	1684.00
1035.45	1638.00
1035.87	2592.00
1036.29	1820.00
1036.72	1795.00
1037.14	1661.00
1037.56	1636.00
1037.99	1658.00
1038.41	1716.00
1038.83	1702.00
1039.25	1681.00
1039.68	1655.00
1040.10	1626.00
1040.52	1644.00
1040.94	1643.00
1041.37	1631.00
1041.79	1619.00
1042.21	1629.00
1042.63	1714.00
1043.06	1650.00
1043.48	1648.00
1043.90	1642.00
1044.32	1668.00
1044.75	1650.00
1045.17	1981.00
1045.59	1876.00
1046.01	1744.00
1046.44	1807.00
1046.86	1696.00
1047.28	1642.00
1047.70	1754.00
1048.12	1674.00
1048.55	1687.00
1048.97	1826.00
1049.39	1684.00
1049.81	1616.00
1050.23	1686.00
1050.66	1691.00
1051.08	1623.00
1051.50	1731.00
1051.92	1652.00
1052.34	1788.00
1052.77	1743.00
1053.19	1642.00
1053.61	1628.00
1054.03	1660.00
1054.45	1631.00
1054.87	1625.00
1055.30	1629.00
1055.72	1603.00
1056.14	1783.00
1056.56	1726.00
1056.98	1650.00
1057.40	1709.00
1057.82	1639.00
1058.25	1651.00
1058.67	1627.00
1059.09	1682.00
1059.51	1809.00
1059.93	1688.00
1060.35	1631.00
1060.77	1618.00
1061.20	1655.00
1061.62	1700.00
1062.04	1827.00
1062.46	1665.00
1062.88	1609.00
1063.30	1724.00
1063.72	1649.00
1064.14	1656.00
1064.56	1728.00
1064.99	1692.00
1065.41	1644.00
1065.83	1680.00
1066.25	1667.00
1066.67	1713.00
1067.09	1649.00
1067.51	1631.00
1067.93	1744.00
1068.35	1665.00
1068.77	1643.00
1069.19	1762.00
1069.61	1738.00
1070.04	1634.00
1070.46	1644.00
1070.88	1627.00
1071.30	1608.00
1071.72	1629.00
1072.14	1629.00
1072.56	1632.00
1072.98	1646.00
1073.40	1686.00
1073.82	1647.00
1074.24	1622.00
1074.66	1636.00
1075.08	1610.00
1075.50	1720.00
1075.92	1651.00
1076.34	1627.00
1076.76	1627.00
1077.18	1691.00
1077.60	1602.00
1078.02	1636.00
1078.44	1732.00
1078.86	1768.00
1079.28	1757.00
1079.70	1696.00
1080.12	1668.00
1080.54	1641.00
1080.96	1635.00
1081.38	1623.00
1081.80	1635.00
1082.22	1715.00
1082.64	1843.00
1083.06	1714.00
1083.48	1734.00
1083.90	1631.00
1084.32	1591.00
1084.74	1605.00
1085.16	1953.00
1085.58	1663.00
1086.00	1640.00
1086.42	1670.00
1086.84	1723.00
1087.26	1641.00
1087.68	1714.00
1088.10	1661.00
1088.52	2146.00
1088.93	1692.00
1089.35	1726.00
1089.77	1639.00
1090.19	1694.00
1090.61	1660.00
1091.03	1786.00
1091.45	1723.00
1091.87	1638.00
1092.29	1632.00
1092.71	1628.00
1093.13	1664.00
1093.55	1626.00
1093.96	1669.00
1094.38	1628.00
1094.80	1612.00
1095.22	1627.00
1095.64	1624.00
1096.06	1637.00
1096.48	1626.00
1096.90	1613.00
1097.32	1630.00
1097.73	1642.00
1098.15	1625.00
1098.57	1685.00
1098.99	1642.00
1099.41	1623.00
1099.83	1624.00
1100.25	1632.00
1100.67	1699.00
1101.08	1810.00
1101.50	1652.00
1101.92	1792.00
1102.34	1700.00
1102.76	1633.00
>>>>>End Processed Spectral Data<<<<<
