SpectraSuite Data File
++++++++++++++++++++++++++++++++++++
Date: Wed Apr 05 12:22:43 EDT 2017
User: manoharanlab
Dark Spectrum Present: No
Reference Spectrum Present: No
Number of Sampled Component Spectra: 1
Spectrometers: HR+C0212
Integration Time (usec): 5000000 (HR+C0212)
Spectra Averaged: 1 (HR+C0212)
Boxcar Smoothing: 0 (HR+C0212)
Correct for Electrical Dark: No (HR+C0212)
Strobe/Lamp Enabled: No (HR+C0212)
Correct for Detector Non-linearity: No (HR+C0212)
Correct for Stray Light: No (HR+C0212)
Number of Pixels in Processed Spectrum: 2048
>>>>>Begin Processed Spectral Data<<<<<
188.35	1626.00
188.83	1580.00
189.30	1584.00
189.77	1603.00
190.25	1588.00
190.72	2022.00
191.20	1670.00
191.67	1776.00
192.14	1654.00
192.62	1649.00
193.09	1662.00
193.57	1655.00
194.04	1800.00
194.51	1660.00
194.99	1978.00
195.46	1675.00
195.94	1747.00
196.41	1672.00
196.88	1770.00
197.36	1730.00
197.83	2303.00
198.30	1700.00
198.78	1819.00
199.25	1689.00
199.72	1646.00
200.20	1652.00
200.67	1674.00
201.15	1694.00
201.62	1713.00
202.09	1812.00
202.57	1765.00
203.04	1717.00
203.51	1706.00
203.99	1705.00
204.46	1686.00
204.93	1745.00
205.41	1699.00
205.88	1701.00
206.35	1862.00
206.83	1679.00
207.30	1781.00
207.77	1706.00
208.24	1760.00
208.72	1764.00
209.19	1695.00
209.66	1734.00
210.14	1952.00
210.61	1779.00
211.08	2552.00
211.56	1725.00
212.03	1687.00
212.50	2206.00
212.97	1798.00
213.45	1796.00
213.92	1872.00
214.39	1684.00
214.87	1668.00
215.34	1687.00
215.81	1728.00
216.28	1661.00
216.76	1658.00
217.23	1976.00
217.70	1898.00
218.17	1774.00
218.65	1774.00
219.12	1703.00
219.59	1643.00
220.06	1734.00
220.54	3738.00
221.01	1846.00
221.48	1668.00
221.95	1676.00
222.43	1643.00
222.90	1801.00
223.37	1759.00
223.84	1771.00
224.31	1682.00
224.79	1672.00
225.26	1738.00
225.73	1925.00
226.20	1774.00
226.68	1702.00
227.15	1681.00
227.62	1693.00
228.09	1770.00
228.56	1706.00
229.04	1654.00
229.51	1911.00
229.98	1711.00
230.45	1658.00
230.92	1674.00
231.39	1714.00
231.87	1800.00
232.34	1691.00
232.81	1678.00
233.28	1665.00
233.75	1792.00
234.22	1672.00
234.70	1942.00
235.17	1693.00
235.64	1831.00
236.11	1682.00
236.58	1796.00
237.05	1657.00
237.53	1768.00
238.00	1721.00
238.47	2403.00
238.94	2162.00
239.41	1704.00
239.88	1769.00
240.35	1664.00
240.83	1845.00
241.30	1728.00
241.77	1670.00
242.24	1702.00
242.71	1674.00
243.18	1928.00
243.65	1699.00
244.12	1675.00
244.59	1647.00
245.07	1748.00
245.54	1705.00
246.01	1648.00
246.48	1671.00
246.95	1770.00
247.42	1758.00
247.89	1700.00
248.36	1747.00
248.83	1675.00
249.30	1657.00
249.77	1778.00
250.25	1715.00
250.72	1675.00
251.19	3111.00
251.66	1898.00
252.13	1677.00
252.60	1659.00
253.07	1706.00
253.54	1673.00
254.01	1725.00
254.48	1769.00
254.95	1763.00
255.42	1680.00
255.89	1641.00
256.36	1728.00
256.83	1664.00
257.30	1660.00
257.77	1740.00
258.24	1685.00
258.72	1691.00
259.19	1850.00
259.66	1700.00
260.13	1648.00
260.60	1889.00
261.07	1847.00
261.54	1677.00
262.01	1796.00
262.48	1744.00
262.95	1700.00
263.42	1656.00
263.89	1651.00
264.36	1688.00
264.83	1683.00
265.30	1778.00
265.77	1905.00
266.24	1683.00
266.71	2050.00
267.18	1700.00
267.65	1703.00
268.12	1681.00
268.59	1862.00
269.06	1685.00
269.52	1688.00
269.99	1665.00
270.46	1749.00
270.93	1764.00
271.40	1805.00
271.87	1660.00
272.34	1716.00
272.81	1754.00
273.28	1841.00
273.75	1824.00
274.22	1711.00
274.69	1643.00
275.16	1648.00
275.63	1746.00
276.10	1681.00
276.57	1801.00
277.04	1668.00
277.51	1643.00
277.97	1768.00
278.44	1669.00
278.91	1778.00
279.38	1689.00
279.85	1769.00
280.32	1740.00
280.79	1665.00
281.26	1824.00
281.73	1666.00
282.20	1632.00
282.67	1676.00
283.13	1661.00
283.60	1666.00
284.07	1659.00
284.54	1656.00
285.01	1642.00
285.48	2293.00
285.95	1680.00
286.42	1664.00
286.89	1718.00
287.35	1624.00
287.82	1681.00
288.29	1697.00
288.76	1701.00
289.23	1676.00
289.70	1769.00
290.17	1697.00
290.63	1746.00
291.10	1663.00
291.57	1633.00
292.04	1660.00
292.51	1685.00
292.98	1861.00
293.44	1666.00
293.91	1648.00
294.38	1700.00
294.85	1727.00
295.32	1746.00
295.79	1720.00
296.25	1695.00
296.72	1658.00
297.19	2450.00
297.66	1774.00
298.13	1769.00
298.59	1661.00
299.06	1756.00
299.53	1690.00
300.00	2576.00
300.47	1748.00
300.93	1716.00
301.40	1731.00
301.87	1661.00
302.34	1652.00
302.81	1669.00
303.27	1643.00
303.74	1668.00
304.21	1680.00
304.68	1669.00
305.14	1762.00
305.61	1737.00
306.08	1650.00
306.55	1910.00
307.02	1658.00
307.48	1746.00
307.95	1679.00
308.42	1681.00
308.89	1649.00
309.35	1715.00
309.82	1832.00
310.29	1725.00
310.76	1650.00
311.22	1721.00
311.69	1673.00
312.16	1641.00
312.62	1739.00
313.09	1643.00
313.56	1662.00
314.03	1742.00
314.49	1659.00
314.96	1735.00
315.43	1664.00
315.89	1722.00
316.36	1667.00
316.83	1647.00
317.30	1648.00
317.76	1740.00
318.23	1665.00
318.70	1680.00
319.16	1675.00
319.63	1699.00
320.10	1665.00
320.56	1672.00
321.03	1750.00
321.50	1804.00
321.96	1658.00
322.43	1671.00
322.90	1643.00
323.36	1630.00
323.83	1653.00
324.30	1631.00
324.76	1640.00
325.23	1738.00
325.70	1714.00
326.16	1748.00
326.63	1746.00
327.10	2660.00
327.56	1718.00
328.03	1716.00
328.50	1823.00
328.96	1676.00
329.43	1652.00
329.90	1672.00
330.36	1730.00
330.83	1826.00
331.29	1682.00
331.76	2170.00
332.23	1863.00
332.69	2716.00
333.16	1770.00
333.62	1658.00
334.09	1711.00
334.56	1648.00
335.02	1673.00
335.49	1660.00
335.95	1664.00
336.42	1656.00
336.89	1680.00
337.35	1760.00
337.82	1876.00
338.28	1935.00
338.75	1785.00
339.22	1656.00
339.68	2028.00
340.15	1712.00
340.61	1660.00
341.08	1663.00
341.54	1653.00
342.01	1725.00
342.48	1666.00
342.94	1660.00
343.41	1645.00
343.87	1641.00
344.34	1694.00
344.80	1844.00
345.27	1682.00
345.73	1821.00
346.20	8557.00
346.66	2080.00
347.13	1680.00
347.59	1651.00
348.06	1671.00
348.53	1835.00
348.99	1781.00
349.46	1765.00
349.92	1657.00
350.39	1815.00
350.85	1741.00
351.32	1769.00
351.78	1704.00
352.25	1750.00
352.71	1719.00
353.18	1654.00
353.64	1687.00
354.11	1669.00
354.57	1691.00
355.04	1718.00
355.50	1724.00
355.97	1638.00
356.43	1754.00
356.90	1678.00
357.36	2063.00
357.82	1682.00
358.29	1697.00
358.75	1681.00
359.22	1625.00
359.68	1642.00
360.15	1678.00
360.61	1742.00
361.08	1805.00
361.54	1907.00
362.01	1685.00
362.47	1623.00
362.93	1654.00
363.40	1660.00
363.86	1778.00
364.33	1648.00
364.79	1698.00
365.26	1685.00
365.72	1660.00
366.19	1717.00
366.65	1746.00
367.11	1814.00
367.58	1785.00
368.04	1762.00
368.51	1835.00
368.97	1676.00
369.43	1734.00
369.90	1675.00
370.36	1696.00
370.83	1858.00
371.29	1674.00
371.75	2657.00
372.22	1931.00
372.68	1669.00
373.15	2614.00
373.61	1748.00
374.07	1678.00
374.54	1647.00
375.00	1656.00
375.46	1654.00
375.93	1685.00
376.39	1645.00
376.86	1646.00
377.32	1734.00
377.78	1755.00
378.25	1684.00
378.71	1726.00
379.17	1667.00
379.64	1826.00
380.10	1717.00
380.56	2145.00
381.03	2148.00
381.49	1901.00
381.95	1693.00
382.42	5346.00
382.88	1920.00
383.34	1704.00
383.81	1665.00
384.27	1647.00
384.73	1758.00
385.20	1664.00
385.66	1656.00
386.12	1689.00
386.59	1690.00
387.05	1653.00
387.51	1648.00
387.97	1652.00
388.44	2354.00
388.90	1707.00
389.36	1778.00
389.83	1676.00
390.29	1662.00
390.75	1698.00
391.21	1647.00
391.68	1721.00
392.14	2611.00
392.60	1958.00
393.07	1765.00
393.53	1670.00
393.99	1653.00
394.45	2148.00
394.92	1777.00
395.38	1736.00
395.84	1773.00
396.30	1645.00
396.77	1644.00
397.23	1818.00
397.69	1827.00
398.15	1745.00
398.62	1866.00
399.08	1756.00
399.54	1786.00
400.00	1752.00
400.46	1662.00
400.93	1656.00
401.39	1745.00
401.85	1754.00
402.31	1664.00
402.78	1638.00
403.24	1771.00
403.70	1751.00
404.16	1670.00
404.62	2798.00
405.09	2042.00
405.55	1682.00
406.01	1698.00
406.47	1686.00
406.93	1667.00
407.40	1671.00
407.86	1637.00
408.32	1710.00
408.78	1718.00
409.24	1735.00
409.70	1817.00
410.17	1706.00
410.63	1682.00
411.09	1709.00
411.55	1705.00
412.01	1731.00
412.47	1845.00
412.94	1828.00
413.40	1853.00
413.86	1644.00
414.32	1626.00
414.78	1656.00
415.24	1627.00
415.71	1666.00
416.17	1646.00
416.63	1638.00
417.09	1642.00
417.55	1633.00
418.01	2035.00
418.47	1701.00
418.93	1697.00
419.40	1653.00
419.86	1633.00
420.32	1865.00
420.78	1708.00
421.24	1682.00
421.70	1650.00
422.16	1682.00
422.62	1706.00
423.08	1938.00
423.54	1696.00
424.01	1759.00
424.47	1637.00
424.93	1719.00
425.39	2344.00
425.85	1709.00
426.31	1628.00
426.77	1854.00
427.23	1759.00
427.69	1751.00
428.15	1691.00
428.61	1776.00
429.07	1802.00
429.53	1672.00
430.00	1629.00
430.46	1629.00
430.92	1623.00
431.38	1755.00
431.84	1782.00
432.30	1653.00
432.76	1705.00
433.22	1658.00
433.68	1866.00
434.14	1690.00
434.60	1820.00
435.06	1664.00
435.52	1702.00
435.98	1629.00
436.44	1717.00
436.90	1662.00
437.36	1702.00
437.82	2046.00
438.28	1768.00
438.74	1645.00
439.20	1686.00
439.66	1637.00
440.12	1645.00
440.58	1695.00
441.04	1673.00
441.50	1640.00
441.96	1657.00
442.42	1674.00
442.88	1788.00
443.34	1674.00
443.80	1626.00
444.26	1748.00
444.72	1647.00
445.18	1717.00
445.64	1737.00
446.10	1636.00
446.56	1630.00
447.02	1673.00
447.48	1668.00
447.94	1755.00
448.40	1837.00
448.86	1952.00
449.32	1658.00
449.77	1645.00
450.23	2020.00
450.69	1747.00
451.15	1735.00
451.61	1657.00
452.07	1657.00
452.53	1798.00
452.99	1719.00
453.45	2255.00
453.91	1878.00
454.37	1847.00
454.83	1769.00
455.29	1651.00
455.74	1635.00
456.20	1738.00
456.66	1714.00
457.12	1659.00
457.58	1647.00
458.04	1679.00
458.50	1651.00
458.96	1621.00
459.42	1740.00
459.88	1632.00
460.33	1643.00
460.79	1652.00
461.25	1612.00
461.71	1848.00
462.17	1753.00
462.63	1638.00
463.09	1719.00
463.54	1629.00
464.00	1644.00
464.46	1799.00
464.92	1757.00
465.38	1888.00
465.84	1680.00
466.30	1619.00
466.75	1654.00
467.21	1683.00
467.67	1689.00
468.13	1664.00
468.59	1824.00
469.05	1734.00
469.50	1745.00
469.96	1730.00
470.42	1669.00
470.88	1668.00
471.34	1648.00
471.80	1653.00
472.25	1629.00
472.71	1670.00
473.17	1755.00
473.63	1916.00
474.09	1683.00
474.54	1726.00
475.00	1668.00
475.46	1691.00
475.92	1712.00
476.38	1653.00
476.83	1623.00
477.29	1654.00
477.75	2190.00
478.21	1780.00
478.66	1655.00
479.12	1656.00
479.58	1626.00
480.04	2670.00
480.50	1929.00
480.95	2625.00
481.41	1800.00
481.87	2418.00
482.33	1710.00
482.78	1650.00
483.24	2185.00
483.70	1678.00
484.16	1632.00
484.61	1688.00
485.07	1713.00
485.53	2219.00
485.98	1775.00
486.44	1649.00
486.90	1645.00
487.36	1720.00
487.81	1745.00
488.27	1802.00
488.73	1642.00
489.18	1625.00
489.64	1906.00
490.10	1646.00
490.56	1660.00
491.01	1738.00
491.47	1658.00
491.93	1645.00
492.38	1633.00
492.84	1795.00
493.30	1675.00
493.75	1711.00
494.21	1642.00
494.67	1662.00
495.13	1688.00
495.58	1664.00
496.04	1634.00
496.50	1863.00
496.95	1747.00
497.41	1640.00
497.87	1730.00
498.32	1716.00
498.78	1914.00
499.23	1654.00
499.69	1721.00
500.15	1652.00
500.60	1660.00
501.06	1642.00
501.52	2545.00
501.97	1807.00
502.43	1648.00
502.89	1645.00
503.34	1663.00
503.80	1652.00
504.25	1636.00
504.71	1657.00
505.17	1633.00
505.62	1708.00
506.08	1708.00
506.54	1640.00
506.99	2032.00
507.45	1744.00
507.90	1758.00
508.36	1652.00
508.82	1794.00
509.27	1755.00
509.73	1740.00
510.18	1660.00
510.64	1652.00
511.10	1644.00
511.55	1634.00
512.01	1817.00
512.46	1677.00
512.92	1658.00
513.37	1641.00
513.83	1716.00
514.29	1659.00
514.74	1702.00
515.20	1697.00
515.65	1751.00
516.11	1648.00
516.56	1655.00
517.02	1910.00
517.47	1715.00
517.93	1657.00
518.39	1814.00
518.84	1655.00
519.30	1675.00
519.75	1735.00
520.21	1634.00
520.66	1739.00
521.12	1628.00
521.57	1634.00
522.03	1654.00
522.48	1662.00
522.94	1799.00
523.39	1680.00
523.85	1817.00
524.30	1744.00
524.76	1675.00
525.21	1628.00
525.67	1691.00
526.12	1976.00
526.58	1836.00
527.03	1672.00
527.49	1630.00
527.94	1696.00
528.40	1864.00
528.85	1897.00
529.31	1660.00
529.76	1623.00
530.22	1634.00
530.67	1705.00
531.13	1682.00
531.58	1756.00
532.03	1713.00
532.49	1858.00
532.94	1796.00
533.40	1746.00
533.85	1721.00
534.31	1645.00
534.76	1608.00
535.22	1706.00
535.67	1809.00
536.12	1678.00
536.58	1659.00
537.03	1728.00
537.49	2079.00
537.94	2261.00
538.40	1691.00
538.85	1632.00
539.30	1607.00
539.76	1653.00
540.21	1649.00
540.67	2252.00
541.12	1694.00
541.58	1633.00
542.03	1644.00
542.48	1640.00
542.94	1643.00
543.39	1656.00
543.84	2428.00
544.30	1932.00
544.75	1671.00
545.21	1698.00
545.66	1632.00
546.11	1712.00
546.57	1634.00
547.02	1624.00
547.48	1731.00
547.93	1847.00
548.38	1689.00
548.84	1856.00
549.29	1723.00
549.74	1742.00
550.20	1807.00
550.65	1672.00
551.10	1738.00
551.56	1713.00
552.01	1668.00
552.46	1656.00
552.92	1713.00
553.37	2145.00
553.82	1693.00
554.28	1749.00
554.73	1644.00
555.18	1791.00
555.64	1687.00
556.09	1650.00
556.54	1659.00
557.00	1656.00
557.45	1619.00
557.90	2326.00
558.36	1963.00
558.81	1675.00
559.26	1674.00
559.71	1748.00
560.17	1655.00
560.62	1650.00
561.07	1630.00
561.53	1637.00
561.98	1636.00
562.43	1614.00
562.88	1708.00
563.34	2197.00
563.79	1678.00
564.24	1620.00
564.70	1793.00
565.15	1927.00
565.60	1647.00
566.05	1667.00
566.51	1637.00
566.96	1618.00
567.41	1639.00
567.86	1709.00
568.32	1642.00
568.77	1634.00
569.22	1611.00
569.67	1627.00
570.12	1630.00
570.58	1633.00
571.03	1633.00
571.48	1648.00
571.93	1664.00
572.39	1641.00
572.84	1640.00
573.29	2407.00
573.74	1746.00
574.19	1628.00
574.65	2278.00
575.10	1817.00
575.55	1647.00
576.00	1628.00
576.45	1688.00
576.91	1655.00
577.36	1646.00
577.81	1630.00
578.26	1627.00
578.71	1996.00
579.17	1735.00
579.62	2394.00
580.07	1752.00
580.52	1706.00
580.97	1651.00
581.42	1648.00
581.88	1623.00
582.33	1624.00
582.78	1977.00
583.23	1638.00
583.68	1698.00
584.13	1647.00
584.59	1686.00
585.04	1788.00
585.49	1650.00
585.94	1698.00
586.39	1624.00
586.84	1624.00
587.29	1654.00
587.74	1662.00
588.20	1633.00
588.65	1689.00
589.10	1726.00
589.55	1678.00
590.00	1726.00
590.45	1632.00
590.90	1716.00
591.35	1754.00
591.81	1634.00
592.26	1616.00
592.71	1690.00
593.16	1647.00
593.61	2367.00
594.06	1706.00
594.51	1628.00
594.96	1660.00
595.41	1754.00
595.86	1746.00
596.31	1639.00
596.76	1620.00
597.22	1600.00
597.67	1619.00
598.12	1831.00
598.57	1807.00
599.02	1651.00
599.47	1752.00
599.92	1646.00
600.37	1689.00
600.82	1664.00
601.27	1632.00
601.72	1641.00
602.17	1624.00
602.62	1699.00
603.07	1639.00
603.52	1643.00
603.97	2015.00
604.42	1659.00
604.87	1633.00
605.32	1684.00
605.77	1646.00
606.22	1611.00
606.67	1696.00
607.12	1663.00
607.57	1641.00
608.02	1725.00
608.47	1658.00
608.92	1620.00
609.37	1635.00
609.82	1754.00
610.27	1650.00
610.72	1628.00
611.17	2476.00
611.62	1774.00
612.07	1810.00
612.52	1737.00
612.97	2081.00
613.42	1718.00
613.87	1604.00
614.32	1879.00
614.77	1747.00
615.22	1617.00
615.67	1712.00
616.12	1735.00
616.57	1721.00
617.02	1621.00
617.47	1788.00
617.92	1647.00
618.37	1618.00
618.82	1628.00
619.27	1642.00
619.72	1718.00
620.17	1735.00
620.62	1697.00
621.06	1653.00
621.51	1644.00
621.96	1934.00
622.41	1735.00
622.86	1659.00
623.31	1774.00
623.76	2023.00
624.21	1652.00
624.66	1652.00
625.11	1721.00
625.56	1638.00
626.00	1626.00
626.45	1616.00
626.90	1614.00
627.35	1644.00
627.80	1639.00
628.25	1618.00
628.70	1628.00
629.15	1648.00
629.60	1629.00
630.04	1694.00
630.49	1623.00
630.94	1632.00
631.39	1745.00
631.84	1639.00
632.29	1623.00
632.74	1683.00
633.18	1629.00
633.63	1750.00
634.08	1640.00
634.53	1646.00
634.98	1620.00
635.43	1646.00
635.88	1631.00
636.32	1612.00
636.77	1898.00
637.22	1738.00
637.67	1682.00
638.12	1620.00
638.56	2240.00
639.01	1748.00
639.46	1724.00
639.91	1879.00
640.36	1695.00
640.81	1786.00
641.25	1769.00
641.70	1660.00
642.15	1628.00
642.60	1585.00
643.05	1682.00
643.49	1696.00
643.94	1643.00
644.39	1646.00
644.84	1606.00
645.28	1641.00
645.73	1624.00
646.18	1630.00
646.63	1650.00
647.08	1631.00
647.52	1641.00
647.97	1647.00
648.42	2221.00
648.87	1696.00
649.31	2468.00
649.76	1702.00
650.21	1639.00
650.66	1898.00
651.10	1656.00
651.55	1643.00
652.00	1641.00
652.45	1669.00
652.89	1648.00
653.34	1677.00
653.79	1646.00
654.24	1660.00
654.68	1628.00
655.13	1799.00
655.58	1646.00
656.02	1618.00
656.47	1669.00
656.92	1924.00
657.37	1654.00
657.81	1704.00
658.26	1710.00
658.71	1664.00
659.15	1678.00
659.60	1633.00
660.05	1622.00
660.49	1651.00
660.94	1665.00
661.39	1642.00
661.83	3152.00
662.28	1747.00
662.73	1612.00
663.17	1610.00
663.62	1709.00
664.07	1761.00
664.51	1733.00
664.96	1651.00
665.41	1740.00
665.85	1640.00
666.30	1628.00
666.75	1721.00
667.19	1674.00
667.64	1623.00
668.09	1623.00
668.53	1738.00
668.98	1674.00
669.43	1607.00
669.87	1954.00
670.32	1673.00
670.76	1661.00
671.21	1613.00
671.66	1604.00
672.10	1658.00
672.55	1730.00
673.00	1621.00
673.44	1654.00
673.89	1940.00
674.33	1648.00
674.78	2407.00
675.23	1810.00
675.67	1642.00
676.12	1642.00
676.56	1636.00
677.01	1631.00
677.46	1646.00
677.90	1632.00
678.35	1619.00
678.79	1706.00
679.24	1616.00
679.68	1671.00
680.13	1790.00
680.58	2546.00
681.02	1708.00
681.47	1637.00
681.91	1639.00
682.36	1634.00
682.80	1783.00
683.25	1641.00
683.69	1677.00
684.14	1668.00
684.59	1658.00
685.03	1638.00
685.48	1625.00
685.92	1643.00
686.37	1713.00
686.81	1648.00
687.26	1650.00
687.70	1650.00
688.15	1632.00
688.59	1700.00
689.04	1725.00
689.48	1646.00
689.93	1621.00
690.37	1621.00
690.82	1652.00
691.26	1645.00
691.71	1695.00
692.15	1834.00
692.60	1654.00
693.04	1614.00
693.49	1631.00
693.93	1640.00
694.38	1648.00
694.82	1632.00
695.27	1628.00
695.71	1618.00
696.16	1671.00
696.60	1614.00
697.05	1703.00
697.49	1659.00
697.93	2056.00
698.38	1683.00
698.82	1635.00
699.27	1725.00
699.71	1646.00
700.16	1674.00
700.60	1618.00
701.05	1646.00
701.49	1722.00
701.93	1630.00
702.38	1621.00
702.82	1704.00
703.27	1709.00
703.71	1752.00
704.16	1734.00
704.60	1637.00
705.04	1629.00
705.49	1665.00
705.93	1640.00
706.38	1736.00
706.82	1744.00
707.26	1698.00
707.71	1663.00
708.15	1717.00
708.60	1617.00
709.04	1656.00
709.48	1643.00
709.93	1987.00
710.37	1782.00
710.82	1636.00
711.26	1673.00
711.70	2226.00
712.15	1704.00
712.59	1640.00
713.03	1717.00
713.48	1793.00
713.92	1636.00
714.37	1628.00
714.81	2604.00
715.25	1752.00
715.70	2105.00
716.14	1802.00
716.58	1662.00
717.03	1612.00
717.47	1629.00
717.91	1648.00
718.36	1640.00
718.80	1731.00
719.24	1728.00
719.69	1883.00
720.13	1673.00
720.57	1646.00
721.02	1622.00
721.46	1631.00
721.90	1706.00
722.35	1718.00
722.79	1634.00
723.23	1646.00
723.67	1694.00
724.12	1632.00
724.56	1957.00
725.00	1702.00
725.45	1654.00
725.89	1628.00
726.33	1713.00
726.77	1972.00
727.22	1785.00
727.66	1726.00
728.10	1652.00
728.55	1625.00
728.99	1626.00
729.43	1629.00
729.87	2717.00
730.32	1876.00
730.76	1998.00
731.20	1699.00
731.64	1719.00
732.09	1639.00
732.53	1641.00
732.97	1714.00
733.41	1666.00
733.86	1654.00
734.30	1715.00
734.74	1713.00
735.18	1645.00
735.62	1668.00
736.07	1640.00
736.51	1628.00
736.95	1780.00
737.39	1635.00
737.84	1626.00
738.28	1620.00
738.72	1814.00
739.16	1667.00
739.60	1636.00
740.05	1641.00
740.49	1627.00
740.93	1713.00
741.37	2005.00
741.81	1689.00
742.26	2444.00
742.70	1717.00
743.14	1654.00
743.58	1643.00
744.02	1692.00
744.46	1642.00
744.91	1724.00
745.35	1641.00
745.79	1634.00
746.23	1723.00
746.67	1624.00
747.11	1627.00
747.56	1723.00
748.00	1743.00
748.44	1753.00
748.88	1652.00
749.32	1636.00
749.76	1619.00
750.20	1608.00
750.65	1644.00
751.09	1729.00
751.53	1629.00
751.97	1649.00
752.41	1656.00
752.85	1853.00
753.29	1652.00
753.73	1633.00
754.18	1653.00
754.62	1874.00
755.06	1640.00
755.50	1810.00
755.94	2261.00
756.38	1686.00
756.82	1842.00
757.26	1774.00
757.70	1662.00
758.14	1617.00
758.58	1608.00
759.03	1704.00
759.47	1706.00
759.91	1615.00
760.35	1624.00
760.79	1661.00
761.23	1804.00
761.67	1722.00
762.11	1628.00
762.55	1625.00
762.99	1671.00
763.43	1644.00
763.87	1722.00
764.31	1626.00
764.75	1736.00
765.19	1824.00
765.63	1640.00
766.07	1619.00
766.51	1615.00
766.96	1619.00
767.40	1607.00
767.84	1764.00
768.28	1730.00
768.72	1702.00
769.16	1634.00
769.60	1659.00
770.04	1689.00
770.48	1648.00
770.92	1633.00
771.36	1702.00
771.80	1632.00
772.24	2400.00
772.68	1681.00
773.12	1631.00
773.56	1658.00
774.00	1636.00
774.44	1630.00
774.88	1608.00
775.32	1650.00
775.76	1800.00
776.20	1654.00
776.64	1610.00
777.07	1642.00
777.51	1703.00
777.95	1652.00
778.39	1626.00
778.83	1760.00
779.27	1715.00
779.71	1714.00
780.15	1627.00
780.59	1992.00
781.03	1891.00
781.47	1640.00
781.91	1657.00
782.35	2136.00
782.79	1755.00
783.23	1702.00
783.67	1637.00
784.11	1700.00
784.54	1670.00
784.98	1659.00
785.42	1817.00
785.86	1660.00
786.30	1636.00
786.74	1647.00
787.18	1650.00
787.62	1948.00
788.06	1762.00
788.50	1639.00
788.94	1651.00
789.37	1638.00
789.81	1671.00
790.25	1693.00
790.69	2083.00
791.13	1676.00
791.57	1643.00
792.01	1691.00
792.45	1656.00
792.88	1704.00
793.32	1926.00
793.76	1737.00
794.20	1846.00
794.64	1662.00
795.08	1623.00
795.52	1695.00
795.95	1712.00
796.39	1710.00
796.83	1722.00
797.27	1707.00
797.71	1621.00
798.15	1967.00
798.59	1688.00
799.02	1676.00
799.46	1692.00
799.90	1630.00
800.34	1956.00
800.78	1731.00
801.21	1639.00
801.65	1924.00
802.09	1649.00
802.53	1644.00
802.97	3305.00
803.40	1757.00
803.84	1630.00
804.28	1699.00
804.72	1796.00
805.16	1668.00
805.59	1754.00
806.03	1647.00
806.47	1662.00
806.91	1627.00
807.35	1615.00
807.78	1604.00
808.22	1848.00
808.66	1714.00
809.10	1749.00
809.53	1626.00
809.97	1623.00
810.41	1597.00
810.85	1882.00
811.28	1656.00
811.72	1646.00
812.16	1609.00
812.60	1609.00
813.03	1648.00
813.47	1911.00
813.91	1661.00
814.35	1697.00
814.78	1611.00
815.22	1634.00
815.66	1736.00
816.10	1709.00
816.53	1858.00
816.97	2214.00
817.41	1684.00
817.84	1614.00
818.28	1623.00
818.72	1656.00
819.16	1710.00
819.59	2582.00
820.03	1718.00
820.47	1652.00
820.90	1820.00
821.34	1640.00
821.78	1670.00
822.21	1613.00
822.65	1605.00
823.09	1626.00
823.52	1639.00
823.96	1646.00
824.40	1615.00
824.83	1628.00
825.27	1600.00
825.71	1725.00
826.14	1628.00
826.58	1781.00
827.02	1703.00
827.45	1626.00
827.89	1666.00
828.33	1697.00
828.76	1667.00
829.20	1624.00
829.64	1636.00
830.07	1633.00
830.51	1637.00
830.94	1681.00
831.38	1788.00
831.82	2316.00
832.25	1680.00
832.69	1729.00
833.13	1695.00
833.56	2061.00
834.00	1742.00
834.43	1802.00
834.87	1666.00
835.31	1642.00
835.74	1642.00
836.18	1623.00
836.61	1619.00
837.05	1627.00
837.49	1723.00
837.92	1642.00
838.36	1606.00
838.79	1657.00
839.23	1619.00
839.66	2023.00
840.10	1658.00
840.54	1620.00
840.97	1632.00
841.41	1629.00
841.84	2034.00
842.28	1670.00
842.71	1620.00
843.15	1761.00
843.58	1656.00
844.02	1684.00
844.46	1636.00
844.89	1642.00
845.33	1634.00
845.76	1626.00
846.20	1647.00
846.63	1705.00
847.07	1625.00
847.50	1710.00
847.94	1644.00
848.37	2334.00
848.81	1704.00
849.24	1701.00
849.68	1649.00
850.11	2413.00
850.55	1796.00
850.98	2737.00
851.42	1729.00
851.85	1643.00
852.29	1719.00
852.72	1768.00
853.16	1648.00
853.59	1704.00
854.03	1632.00
854.46	1606.00
854.90	1722.00
855.33	1664.00
855.77	1706.00
856.20	1714.00
856.64	1644.00
857.07	1658.00
857.51	2143.00
857.94	1715.00
858.37	1732.00
858.81	1641.00
859.24	1614.00
859.68	1616.00
860.11	1630.00
860.55	1642.00
860.98	1798.00
861.42	1646.00
861.85	1692.00
862.28	1633.00
862.72	1662.00
863.15	1650.00
863.59	1696.00
864.02	1620.00
864.45	1890.00
864.89	1647.00
865.32	1776.00
865.76	1644.00
866.19	1666.00
866.62	1798.00
867.06	1636.00
867.49	1788.00
867.93	1948.00
868.36	1889.00
868.79	1678.00
869.23	1683.00
869.66	2065.00
870.10	1695.00
870.53	1622.00
870.96	1702.00
871.40	1641.00
871.83	1649.00
872.26	1635.00
872.70	1808.00
873.13	1629.00
873.57	1738.00
874.00	1629.00
874.43	1624.00
874.87	1794.00
875.30	1828.00
875.73	1639.00
876.17	1714.00
876.60	1712.00
877.03	1637.00
877.47	1633.00
877.90	1640.00
878.33	1618.00
878.77	1646.00
879.20	1610.00
879.63	1818.00
880.07	1724.00
880.50	1648.00
880.93	1614.00
881.36	1703.00
881.80	1634.00
882.23	1636.00
882.66	1728.00
883.10	1731.00
883.53	1787.00
883.96	1672.00
884.40	1740.00
884.83	1633.00
885.26	2476.00
885.69	1724.00
886.13	1765.00
886.56	1842.00
886.99	1768.00
887.42	1636.00
887.86	1634.00
888.29	1628.00
888.72	1658.00
889.15	1622.00
889.59	1634.00
890.02	1633.00
890.45	1660.00
890.88	1769.00
891.32	1892.00
891.75	1751.00
892.18	1734.00
892.61	1692.00
893.05	1631.00
893.48	1619.00
893.91	1636.00
894.34	1630.00
894.78	1725.00
895.21	1676.00
895.64	1648.00
896.07	1690.00
896.50	1633.00
896.94	1621.00
897.37	1615.00
897.80	1761.00
898.23	1732.00
898.66	2846.00
899.10	1828.00
899.53	1653.00
899.96	1630.00
900.39	1637.00
900.82	1648.00
901.26	1627.00
901.69	1629.00
902.12	1645.00
902.55	1670.00
902.98	1638.00
903.41	1694.00
903.85	1616.00
904.28	1820.00
904.71	1656.00
905.14	1636.00
905.57	1649.00
906.00	1677.00
906.43	1874.00
906.87	1662.00
907.30	1713.00
907.73	1641.00
908.16	1638.00
908.59	1635.00
909.02	1640.00
909.45	1634.00
909.88	1693.00
910.32	1714.00
910.75	1719.00
911.18	1653.00
911.61	1639.00
912.04	1666.00
912.47	2074.00
912.90	2333.00
913.33	1684.00
913.76	2358.00
914.20	1767.00
914.63	1780.00
915.06	1664.00
915.49	1642.00
915.92	1661.00
916.35	1711.00
916.78	1645.00
917.21	1658.00
917.64	1697.00
918.07	1807.00
918.50	1998.00
918.93	1675.00
919.36	1654.00
919.80	1641.00
920.23	1705.00
920.66	1649.00
921.09	1704.00
921.52	1640.00
921.95	1616.00
922.38	1648.00
922.81	1755.00
923.24	1646.00
923.67	1809.00
924.10	1651.00
924.53	2070.00
924.96	1650.00
925.39	1628.00
925.82	1660.00
926.25	1704.00
926.68	1652.00
927.11	1746.00
927.54	1637.00
927.97	1618.00
928.40	1635.00
928.83	1670.00
929.26	1621.00
929.69	2098.00
930.12	1655.00
930.55	1647.00
930.98	1640.00
931.41	1811.00
931.84	1742.00
932.27	1654.00
932.70	1993.00
933.13	1724.00
933.56	1603.00
933.99	1704.00
934.42	1637.00
934.85	1625.00
935.28	1737.00
935.71	1616.00
936.14	1622.00
936.57	1700.00
937.00	1629.00
937.42	1712.00
937.85	1952.00
938.28	1762.00
938.71	2107.00
939.14	1691.00
939.57	1629.00
940.00	1614.00
940.43	1629.00
940.86	1629.00
941.29	1669.00
941.72	1642.00
942.15	1629.00
942.58	1638.00
943.00	1609.00
943.43	1771.00
943.86	1651.00
944.29	1634.00
944.72	1988.00
945.15	1789.00
945.58	1708.00
946.01	1793.00
946.44	1644.00
946.87	1707.00
947.29	1732.00
947.72	1730.00
948.15	1743.00
948.58	1650.00
949.01	1815.00
949.44	1701.00
949.87	1731.00
950.29	1632.00
950.72	1943.00
951.15	1649.00
951.58	1618.00
952.01	2171.00
952.44	1740.00
952.87	1637.00
953.29	1730.00
953.72	1712.00
954.15	1641.00
954.58	1633.00
955.01	1640.00
955.44	1724.00
955.86	1653.00
956.29	1635.00
956.72	1634.00
957.15	1648.00
957.58	1639.00
958.00	1727.00
958.43	1657.00
958.86	1704.00
959.29	1672.00
959.72	1651.00
960.14	1799.00
960.57	1648.00
961.00	1704.00
961.43	1662.00
961.86	2149.00
962.28	1891.00
962.71	1664.00
963.14	1688.00
963.57	1703.00
963.99	1648.00
964.42	1698.00
964.85	1659.00
965.28	1630.00
965.71	1707.00
966.13	1665.00
966.56	1718.00
966.99	1653.00
967.42	1619.00
967.84	1650.00
968.27	1713.00
968.70	1616.00
969.12	1618.00
969.55	1689.00
969.98	1819.00
970.41	1642.00
970.83	1795.00
971.26	1725.00
971.69	1636.00
972.12	2207.00
972.54	1773.00
972.97	1648.00
973.40	2148.00
973.82	1696.00
974.25	1708.00
974.68	1703.00
975.10	1655.00
975.53	1625.00
975.96	1639.00
976.39	1959.00
976.81	1708.00
977.24	1638.00
977.67	1662.00
978.09	1634.00
978.52	1702.00
978.95	1721.00
979.37	1638.00
979.80	1664.00
980.23	1619.00
980.65	1650.00
981.08	1620.00
981.51	1825.00
981.93	1648.00
982.36	1643.00
982.79	1690.00
983.21	1707.00
983.64	1634.00
984.06	1716.00
984.49	1658.00
984.92	1656.00
985.34	1638.00
985.77	1631.00
986.20	1649.00
986.62	1617.00
987.05	1717.00
987.47	1616.00
987.90	2449.00
988.33	1714.00
988.75	1696.00
989.18	1697.00
989.61	1724.00
990.03	1950.00
990.46	1943.00
990.88	1791.00
991.31	1808.00
991.73	1725.00
992.16	1977.00
992.59	1650.00
993.01	1664.00
993.44	1733.00
993.86	1669.00
994.29	1630.00
994.71	1632.00
995.14	1651.00
995.57	1636.00
995.99	1613.00
996.42	1624.00
996.84	1644.00
997.27	1651.00
997.69	1725.00
998.12	1861.00
998.54	1903.00
998.97	1642.00
999.40	1748.00
999.82	1616.00
1000.25	1634.00
1000.67	1658.00
1001.10	1674.00
1001.52	1678.00
1001.95	1826.00
1002.37	1654.00
1002.80	1717.00
1003.22	1640.00
1003.65	1649.00
1004.07	1644.00
1004.50	1653.00
1004.92	1835.00
1005.35	1658.00
1005.77	1630.00
1006.20	1620.00
1006.62	1724.00
1007.05	1656.00
1007.47	1630.00
1007.90	2205.00
1008.32	1687.00
1008.75	1633.00
1009.17	1690.00
1009.60	1616.00
1010.02	1690.00
1010.45	1640.00
1010.87	1712.00
1011.29	1638.00
1011.72	1612.00
1012.14	1620.00
1012.57	1706.00
1012.99	1628.00
1013.42	1644.00
1013.84	1632.00
1014.27	1717.00
1014.69	1736.00
1015.11	1642.00
1015.54	1645.00
1015.96	1636.00
1016.39	1688.00
1016.81	1756.00
1017.24	1762.00
1017.66	1699.00
1018.08	1660.00
1018.51	1722.00
1018.93	1630.00
1019.36	1632.00
1019.78	1720.00
1020.20	1714.00
1020.63	1659.00
1021.05	1786.00
1021.48	1655.00
1021.90	1620.00
1022.32	1646.00
1022.75	1648.00
1023.17	1782.00
1023.59	1645.00
1024.02	1656.00
1024.44	1682.00
1024.87	1656.00
1025.29	1643.00
1025.71	1629.00
1026.14	1933.00
1026.56	1855.00
1026.98	1665.00
1027.41	1652.00
1027.83	1632.00
1028.25	1661.00
1028.68	1608.00
1029.10	1904.00
1029.52	1654.00
1029.95	1633.00
1030.37	1644.00
1030.79	1743.00
1031.22	1672.00
1031.64	1604.00
1032.06	1616.00
1032.49	1644.00
1032.91	1644.00
1033.33	1719.00
1033.76	1642.00
1034.18	1651.00
1034.60	1610.00
1035.03	1660.00
1035.45	1630.00
1035.87	2537.00
1036.29	1812.00
1036.72	1781.00
1037.14	1667.00
1037.56	1642.00
1037.99	1642.00
1038.41	1701.00
1038.83	1685.00
1039.25	1674.00
1039.68	1645.00
1040.10	1624.00
1040.52	1629.00
1040.94	1640.00
1041.37	1619.00
1041.79	1615.00
1042.21	1643.00
1042.63	1708.00
1043.06	1644.00
1043.48	1622.00
1043.90	1643.00
1044.32	1652.00
1044.75	1673.00
1045.17	1973.00
1045.59	1868.00
1046.01	1742.00
1046.44	1804.00
1046.86	1694.00
1047.28	1633.00
1047.70	1728.00
1048.12	1679.00
1048.55	1677.00
1048.97	1792.00
1049.39	1690.00
1049.81	1620.00
1050.23	1717.00
1050.66	1706.00
1051.08	1640.00
1051.50	1723.00
1051.92	1631.00
1052.34	1785.00
1052.77	1726.00
1053.19	1656.00
1053.61	1640.00
1054.03	1659.00
1054.45	1639.00
1054.87	1619.00
1055.30	1619.00
1055.72	1612.00
1056.14	1773.00
1056.56	1713.00
1056.98	1610.00
1057.40	1715.00
1057.82	1639.00
1058.25	1629.00
1058.67	1616.00
1059.09	1687.00
1059.51	1785.00
1059.93	1685.00
1060.35	1668.00
1060.77	1632.00
1061.20	1663.00
1061.62	1720.00
1062.04	1808.00
1062.46	1648.00
1062.88	1612.00
1063.30	1708.00
1063.72	1623.00
1064.14	1639.00
1064.56	1718.00
1064.99	1676.00
1065.41	1639.00
1065.83	1685.00
1066.25	1657.00
1066.67	1708.00
1067.09	1652.00
1067.51	1627.00
1067.93	1743.00
1068.35	1674.00
1068.77	1642.00
1069.19	1756.00
1069.61	1730.00
1070.04	1634.00
1070.46	1637.00
1070.88	1632.00
1071.30	1606.00
1071.72	1636.00
1072.14	1634.00
1072.56	1618.00
1072.98	1645.00
1073.40	1722.00
1073.82	1654.00
1074.24	1617.00
1074.66	1636.00
1075.08	1634.00
1075.50	1712.00
1075.92	1639.00
1076.34	1649.00
1076.76	1637.00
1077.18	1703.00
1077.60	1632.00
1078.02	1630.00
1078.44	1719.00
1078.86	1764.00
1079.28	1752.00
1079.70	1705.00
1080.12	1673.00
1080.54	1640.00
1080.96	1635.00
1081.38	1643.00
1081.80	1618.00
1082.22	1713.00
1082.64	1842.00
1083.06	1743.00
1083.48	1740.00
1083.90	1629.00
1084.32	1607.00
1084.74	1626.00
1085.16	1954.00
1085.58	1633.00
1086.00	1633.00
1086.42	1659.00
1086.84	1742.00
1087.26	1634.00
1087.68	1717.00
1088.10	1649.00
1088.52	2156.00
1088.93	1695.00
1089.35	1725.00
1089.77	1631.00
1090.19	1688.00
1090.61	1660.00
1091.03	1780.00
1091.45	1722.00
1091.87	1628.00
1092.29	1643.00
1092.71	1647.00
1093.13	1653.00
1093.55	1620.00
1093.96	1689.00
1094.38	1621.00
1094.80	1638.00
1095.22	1650.00
1095.64	1632.00
1096.06	1642.00
1096.48	1614.00
1096.90	1604.00
1097.32	1645.00
1097.73	1640.00
1098.15	1621.00
1098.57	1659.00
1098.99	1623.00
1099.41	1635.00
1099.83	1605.00
1100.25	1629.00
1100.67	1693.00
1101.08	1810.00
1101.50	1662.00
1101.92	1757.00
1102.34	1713.00
1102.76	1642.00
>>>>>End Processed Spectral Data<<<<<
